"condition","subject","session","cycle","trial","test","stimulus","category","response","dangerous","nutricious","correct","cumulative","RT","motivation","competence","communication","complement","mean_correct"
1,1,1,1,1,0,"11001.jpg",1,3,0,0,0,-100,13475,1,1,1.5,1,0.28
1,1,1,1,2,0,"00000.jpg",1,1,0,0,1,0,16153,1,1,1.5,1,0.24
1,1,1,1,3,0,"10101.jpg",3,3,1,0,1,100,7515,1,1,1.5,1,0.68
1,1,1,1,4,0,"01011.jpg",2,2,0,1,1,200,3768,1,1,1.5,1,0.48
1,1,1,1,5,0,"11011.jpg",2,4,0,1,0,100,7377,1,1,1.5,1,0.32
1,1,1,1,6,0,"00011.jpg",2,2,0,1,1,200,9747,1,1,1.5,1,0.56
1,1,1,1,7,0,"11111.jpg",4,2,1,1,0,100,12758,1,1,1.5,1,0.64
1,1,1,1,8,0,"10000.jpg",1,3,0,0,0,0,25646,1,1,1.5,1,0.68
1,1,1,1,9,0,"01001.jpg",1,1,0,0,1,100,3109,1,1,1.5,1,0.64
1,1,1,1,10,0,"00000.jpg",1,1,0,0,1,200,10906,1,1,1.5,1,0.56
1,1,1,1,11,0,"11011.jpg",2,2,0,1,1,300,30238,1,1,1.5,1,0.72
1,1,1,1,12,0,"11111.jpg",4,4,1,1,1,400,6421,1,1,1.5,1,0.72
1,1,1,1,13,0,"10011.jpg",2,2,0,1,1,500,4029,1,1,1.5,1,0.8
1,1,1,1,14,0,"00111.jpg",2,2,0,1,1,600,52619,1,1,1.5,1,0.6
1,1,1,1,15,0,"10000.jpg",1,1,0,0,1,700,8004,1,1,1.5,1,0.64
1,1,1,1,16,0,"00110.jpg",2,2,0,1,1,800,8948,1,1,1.5,1,0.68
1,1,1,1,17,0,"01001.jpg",1,1,0,0,1,900,34334,1,1,1.5,1,0.76
1,1,1,1,18,0,"10101.jpg",3,3,1,0,1,1000,8673,1,1,1.5,1,0.6
1,1,1,1,19,0,"01111.jpg",2,2,0,1,1,1100,22833,1,1,1.5,1,0.72
1,1,1,1,20,0,"10111.jpg",4,4,1,1,1,1200,5943,1,1,1.5,1,0.56
1,1,1,1,21,0,"01011.jpg",2,2,0,1,1,1300,10305,1,1,1.5,1,0.56
1,1,1,1,22,0,"00001.jpg",1,1,0,0,1,1400,9030,1,1,1.5,1,0.68
1,1,1,1,23,0,"01111.jpg",2,2,0,1,1,1500,11110,1,1,1.5,1,0.76
1,1,1,1,24,0,"01101.jpg",1,1,0,0,1,1600,22177,1,1,1.5,1,0.6
1,1,1,1,25,0,"00010.jpg",2,2,0,1,1,1700,16332,1,1,1.5,1,0.72
1,1,1,1,26,0,"10100.jpg",3,3,1,0,1,1800,5319,1,1,1.5,1,0.64
1,1,1,1,27,0,"11101.jpg",3,3,1,0,1,1900,6723,1,1,1.5,1,0.72
1,1,1,1,28,0,"10010.jpg",2,4,0,1,0,1800,12768,1,1,1.5,1,0.6
1,1,1,1,29,0,"10110.jpg",4,4,1,1,1,1900,7259,1,1,1.5,1,0.8
1,1,1,1,30,0,"00101.jpg",1,3,0,0,0,1800,44840,1,1,1.5,1,0.72
1,1,1,1,31,0,"10001.jpg",1,3,0,0,0,1700,13414,1,1,1.5,1,0.64
1,1,1,1,32,0,"10010.jpg",2,2,0,1,1,1800,42877,1,1,1.5,1,0.64
1,1,1,2,33,0,"01010.jpg",2,2,0,1,1,1900,10539,1,1,1.5,1,0.68
1,1,1,2,34,0,"01110.jpg",2,2,0,1,1,2000,5567,1,1,1.5,1,0.76
1,1,1,2,35,0,"00101.jpg",1,1,0,0,1,2100,46999,1,1,1.5,1,0.8
1,1,1,2,36,0,"11010.jpg",2,2,0,1,1,2200,37312,1,1,1.5,1,0.84
1,1,1,2,37,0,"00100.jpg",1,1,0,0,1,2300,15005,1,1,1.5,1,0.8
1,1,1,2,38,0,"11101.jpg",3,3,1,0,1,2400,15214,1,1,1.5,1,0.76
1,1,1,2,39,0,"00000.jpg",1,1,0,0,1,2500,21813,1,1,1.5,1,0.72
1,1,1,2,40,0,"00100.jpg",1,1,0,0,1,2600,25438,1,1,1.5,1,0.92
1,1,1,2,41,0,"10010.jpg",2,4,0,1,0,2500,14541,1,1,1.5,1,0.84
1,1,1,2,42,0,"00111.jpg",2,4,0,1,0,2400,7722,1,1,1.5,1,0.84
1,1,1,2,43,0,"00101.jpg",1,1,0,0,1,2500,38381,1,1,1.5,1,0.76
1,1,1,2,44,0,"10100.jpg",3,1,1,0,0,2400,31455,1,1,1.5,1,0.84
1,1,1,2,45,0,"10100.jpg",3,3,1,0,1,2500,6405,1,1,1.5,1,0.72
1,1,1,2,46,0,"01100.jpg",1,1,0,0,1,2600,36877,1,1,1.5,1,0.88
1,1,1,2,47,0,"01100.jpg",1,1,0,0,1,2700,5699,1,1,1.5,1,0.8
1,1,1,2,48,0,"10111.jpg",4,4,1,1,1,2800,9880,1,1,1.5,1,0.88
1,1,1,2,49,0,"11010.jpg",2,2,0,1,1,2900,75830,1,1,1.5,1,0.92
1,1,1,2,50,0,"11110.jpg",4,4,1,1,1,3000,31964,1,1,1.5,1,0.88
1,1,1,2,51,0,"01000.jpg",1,1,0,0,1,3100,32932,1,1,1.5,1,0.8
1,1,1,2,52,0,"00001.jpg",1,1,0,0,1,3200,4097,1,1,1.5,1,0.76
1,1,1,2,53,0,"00011.jpg",2,2,0,1,1,3300,10310,1,1,1.5,1,0.84
1,1,1,2,54,0,"01000.jpg",1,1,0,0,1,3400,3698,1,1,1.5,1,0.88
1,1,1,2,55,0,"10101.jpg",3,4,1,0,0,3300,23840,1,1,1.5,1,0.88
1,1,1,2,56,0,"11011.jpg",2,4,0,1,0,3200,30631,1,1,1.5,1,0.8
1,1,1,2,57,0,"01010.jpg",2,2,0,1,1,3300,17157,1,1,1.5,1,0.8
1,1,1,2,58,0,"01011.jpg",2,2,0,1,1,3400,45104,1,1,1.5,1,0.8
1,1,1,2,59,0,"10110.jpg",4,4,1,1,1,3500,7564,1,1,1.5,1,0.88
1,1,1,2,60,0,"11110.jpg",4,4,1,1,1,3600,9542,1,1,1.5,1,0.68
1,1,1,2,61,0,"11010.jpg",2,4,0,1,0,3500,22472,1,1,1.5,1,0.92
1,1,1,2,62,0,"10001.jpg",1,3,0,0,0,3400,54069,1,1,1.5,1,0.76
1,1,1,2,63,0,"00110.jpg",2,2,0,1,1,3500,60659,1,1,1.5,1,0.96
1,1,1,2,64,0,"01111.jpg",2,2,0,1,1,3600,17657,1,1,1.5,1,0.88
1,1,1,3,65,0,"10011.jpg",2,2,0,1,1,3700,20814,1,1,1.5,1,0.92
1,1,1,3,66,0,"01010.jpg",2,2,0,1,1,3800,18495,1,1,1.5,1,0.88
1,1,1,3,67,0,"11100.jpg",3,3,1,0,1,3900,12403,1,1,1.5,1,0.88
1,1,1,3,68,0,"10111.jpg",4,4,1,1,1,4000,4996,1,1,1.5,1,0.84
1,1,1,3,69,0,"01000.jpg",1,1,0,0,1,4100,4204,1,1,1.5,1,0.84
1,1,1,3,70,0,"01110.jpg",2,2,0,1,1,4200,4941,1,1,1.5,1,0.88
1,1,1,3,71,0,"01110.jpg",2,2,0,1,1,4300,3336,1,1,1.5,1,0.84
1,1,1,3,72,0,"11000.jpg",1,1,0,0,1,4400,5723,1,1,1.5,1,0.84
1,1,1,3,73,0,"00010.jpg",2,2,0,1,1,4500,5319,1,1,1.5,1,0.88
1,1,1,3,74,0,"11110.jpg",4,4,1,1,1,4600,5435,1,1,1.5,1,0.92
1,1,1,3,75,0,"01001.jpg",1,1,0,0,1,4700,3034,1,1,1.5,1,0.96
1,1,1,3,76,0,"00001.jpg",1,1,0,0,1,4800,5330,1,1,1.5,1,0.88
1,1,1,3,77,0,"01101.jpg",1,1,0,0,1,4900,2829,1,1,1.5,1,0.88
1,1,1,3,78,0,"10001.jpg",1,1,0,0,1,5000,7957,1,1,1.5,1,0.88
1,1,1,3,79,0,"00100.jpg",1,1,0,0,1,5100,6078,1,1,1.5,1,0.88
1,1,1,3,80,0,"11100.jpg",3,3,1,0,1,5200,5030,1,1,1.5,1,0.96
1,1,1,3,81,0,"00111.jpg",2,2,0,1,1,5300,5037,1,1,1.5,1,0.76
1,1,1,3,82,0,"00011.jpg",2,2,0,1,1,5400,3428,1,1,1.5,1,0.96
1,1,1,3,83,0,"11101.jpg",3,3,1,0,1,5500,3563,1,1,1.5,1,0.96
1,1,1,3,84,0,"11000.jpg",1,1,0,0,1,5600,3782,1,1,1.5,1,0.88
1,1,1,3,85,0,"01100.jpg",1,1,0,0,1,5700,2465,1,1,1.5,1,0.84
1,1,1,3,86,0,"10110.jpg",4,4,1,1,1,5800,3423,1,1,1.5,1,0.96
1,1,1,3,87,0,"10000.jpg",1,1,0,0,1,5900,4750,1,1,1.5,1,0.92
1,1,1,3,88,0,"00110.jpg",2,2,0,1,1,6000,3448,1,1,1.5,1,1
1,1,1,3,89,0,"01101.jpg",1,1,0,0,1,6100,4320,1,1,1.5,1,0.88
1,1,1,3,90,0,"10011.jpg",2,2,0,1,1,6200,3380,1,1,1.5,1,0.92
1,1,1,3,91,0,"11000.jpg",1,1,0,0,1,6300,2901,1,1,1.5,1,0.84
1,1,1,3,92,0,"11100.jpg",3,3,1,0,1,6400,2809,1,1,1.5,1,0.92
1,1,1,3,93,0,"00010.jpg",2,2,0,1,1,6500,4154,1,1,1.5,1,0.84
1,1,1,3,94,0,"11001.jpg",1,1,0,0,1,6600,3542,1,1,1.5,1,0.92
1,1,1,3,95,0,"11001.jpg",1,1,0,0,1,6700,3097,1,1,1.5,1,0.92
1,1,1,3,96,0,"11111.jpg",4,4,1,1,1,6800,4790,1,1,1.5,1,0.92
1,1,1,0,97,1,"11110pt.jpg",4,3,1,1,0,6800,8667,1,1,1.5,1,0.52
1,1,1,0,98,1,"00101pt.jpg",1,2,0,0,0,6800,13103,1,1,1.5,1,0.68
1,1,1,0,99,1,"00111pt.jpg",2,1,0,1,0,6800,45687,1,1,1.5,1,0.52
1,1,1,0,100,1,"11111pt.jpg",4,1,1,1,0,6800,57337,1,1,1.5,1,0.68
1,1,1,0,101,1,"11011pt.jpg",2,1,0,1,0,6800,76137,1,1,1.5,1,0.68
1,1,1,0,102,1,"01000pt.jpg",1,2,0,0,0,6800,77833,1,1,1.5,1,0.6
1,1,1,0,103,1,"01010pt.jpg",2,2,0,1,1,6800,83886,1,1,1.5,1,0.68
1,1,1,0,104,1,"10101pt.jpg",3,3,1,0,1,6800,72423,1,1,1.5,1,0.76
1,2,1,1,1,0,"01010.jpg",2,4,0,1,0,-100,27156,3,3.5,2.5,1.5,0.28
1,2,1,1,2,0,"10011.jpg",2,3,0,1,0,-200,5453,3,3.5,2.5,1.5,0.24
1,2,1,1,3,0,"01101.jpg",1,1,0,0,1,-100,33397,3,3.5,2.5,1.5,0.68
1,2,1,1,4,0,"00100.jpg",1,2,0,0,0,-200,21412,3,3.5,2.5,1.5,0.48
1,2,1,1,5,0,"10110.jpg",4,3,1,1,0,-300,15765,3,3.5,2.5,1.5,0.32
1,2,1,1,6,0,"10101.jpg",3,3,1,0,1,-200,19214,3,3.5,2.5,1.5,0.56
1,2,1,1,7,0,"01011.jpg",2,2,0,1,1,-100,7039,3,3.5,2.5,1.5,0.64
1,2,1,1,8,0,"00001.jpg",1,1,0,0,1,0,6684,3,3.5,2.5,1.5,0.68
1,2,1,1,9,0,"11101.jpg",3,3,1,0,1,100,21299,3,3.5,2.5,1.5,0.64
1,2,1,1,10,0,"01100.jpg",1,1,0,0,1,200,12264,3,3.5,2.5,1.5,0.56
1,2,1,1,11,0,"10101.jpg",3,3,1,0,1,300,4678,3,3.5,2.5,1.5,0.72
1,2,1,1,12,0,"11001.jpg",1,3,0,0,0,200,21052,3,3.5,2.5,1.5,0.72
1,2,1,1,13,0,"11111.jpg",4,4,1,1,1,300,14002,3,3.5,2.5,1.5,0.8
1,2,1,1,14,0,"10100.jpg",3,3,1,0,1,400,5313,3,3.5,2.5,1.5,0.6
1,2,1,1,15,0,"00011.jpg",2,2,0,1,1,500,5830,3,3.5,2.5,1.5,0.64
1,2,1,1,16,0,"11110.jpg",4,4,1,1,1,600,8973,3,3.5,2.5,1.5,0.68
1,2,1,1,17,0,"11100.jpg",3,3,1,0,1,700,6935,3,3.5,2.5,1.5,0.76
1,2,1,1,18,0,"00010.jpg",2,2,0,1,1,800,4433,3,3.5,2.5,1.5,0.6
1,2,1,1,19,0,"00101.jpg",1,1,0,0,1,900,30385,3,3.5,2.5,1.5,0.72
1,2,1,1,20,0,"00100.jpg",1,1,0,0,1,1000,18594,3,3.5,2.5,1.5,0.56
1,2,1,1,21,0,"01000.jpg",1,1,0,0,1,1100,16004,3,3.5,2.5,1.5,0.56
1,2,1,1,22,0,"01000.jpg",1,1,0,0,1,1200,3955,3,3.5,2.5,1.5,0.68
1,2,1,1,23,0,"01011.jpg",2,2,0,1,1,1300,3526,3,3.5,2.5,1.5,0.76
1,2,1,1,24,0,"10101.jpg",3,3,1,0,1,1400,7273,3,3.5,2.5,1.5,0.6
1,2,1,1,25,0,"00000.jpg",1,1,0,0,1,1500,7616,3,3.5,2.5,1.5,0.72
1,2,1,1,26,0,"01100.jpg",1,1,0,0,1,1600,6216,3,3.5,2.5,1.5,0.64
1,2,1,1,27,0,"01101.jpg",1,1,0,0,1,1700,2978,3,3.5,2.5,1.5,0.72
1,2,1,1,28,0,"10000.jpg",1,3,0,0,0,1600,29042,3,3.5,2.5,1.5,0.6
1,2,1,1,29,0,"10100.jpg",3,3,1,0,1,1700,8568,3,3.5,2.5,1.5,0.8
1,2,1,1,30,0,"00110.jpg",2,2,0,1,1,1800,12020,3,3.5,2.5,1.5,0.72
1,2,1,1,31,0,"11100.jpg",3,3,1,0,1,1900,5052,3,3.5,2.5,1.5,0.64
1,2,1,1,32,0,"11110.jpg",4,4,1,1,1,2000,11563,3,3.5,2.5,1.5,0.64
1,2,1,2,33,0,"10010.jpg",2,4,0,1,0,1900,24781,3,3.5,2.5,1.5,0.68
1,2,1,2,34,0,"11110.jpg",4,2,1,1,0,1800,3510,3,3.5,2.5,1.5,0.76
1,2,1,2,35,0,"01010.jpg",2,2,0,1,1,1900,3537,3,3.5,2.5,1.5,0.8
1,2,1,2,36,0,"11000.jpg",1,1,0,0,1,2000,5396,3,3.5,2.5,1.5,0.84
1,2,1,2,37,0,"10010.jpg",2,2,0,1,1,2100,6709,3,3.5,2.5,1.5,0.8
1,2,1,2,38,0,"00000.jpg",1,1,0,0,1,2200,6521,3,3.5,2.5,1.5,0.76
1,2,1,2,39,0,"11010.jpg",2,2,0,1,1,2300,4237,3,3.5,2.5,1.5,0.72
1,2,1,2,40,0,"10011.jpg",2,2,0,1,1,2400,6324,3,3.5,2.5,1.5,0.92
1,2,1,2,41,0,"00111.jpg",2,2,0,1,1,2500,3689,3,3.5,2.5,1.5,0.84
1,2,1,2,42,0,"01111.jpg",2,2,0,1,1,2600,2877,3,3.5,2.5,1.5,0.84
1,2,1,2,43,0,"11100.jpg",3,3,1,0,1,2700,5683,3,3.5,2.5,1.5,0.76
1,2,1,2,44,0,"01000.jpg",1,1,0,0,1,2800,4057,3,3.5,2.5,1.5,0.84
1,2,1,2,45,0,"00011.jpg",2,2,0,1,1,2900,2744,3,3.5,2.5,1.5,0.72
1,2,1,2,46,0,"01001.jpg",1,1,0,0,1,3000,2627,3,3.5,2.5,1.5,0.88
1,2,1,2,47,0,"11010.jpg",2,2,0,1,1,3100,3442,3,3.5,2.5,1.5,0.8
1,2,1,2,48,0,"11101.jpg",3,3,1,0,1,3200,4387,3,3.5,2.5,1.5,0.88
1,2,1,2,49,0,"00010.jpg",2,2,0,1,1,3300,2283,3,3.5,2.5,1.5,0.92
1,2,1,2,50,0,"01001.jpg",1,1,0,0,1,3400,4128,3,3.5,2.5,1.5,0.88
1,2,1,2,51,0,"11000.jpg",1,1,0,0,1,3500,5245,3,3.5,2.5,1.5,0.8
1,2,1,2,52,0,"11011.jpg",2,2,0,1,1,3600,2764,3,3.5,2.5,1.5,0.76
1,2,1,2,53,0,"10000.jpg",1,1,0,0,1,3700,3655,3,3.5,2.5,1.5,0.84
1,2,1,2,54,0,"10111.jpg",4,4,1,1,1,3800,7373,3,3.5,2.5,1.5,0.88
1,2,1,2,55,0,"01111.jpg",2,2,0,1,1,3900,3134,3,3.5,2.5,1.5,0.88
1,2,1,2,56,0,"11101.jpg",3,3,1,0,1,4000,2657,3,3.5,2.5,1.5,0.8
1,2,1,2,57,0,"11011.jpg",2,2,0,1,1,4100,2975,3,3.5,2.5,1.5,0.8
1,2,1,2,58,0,"10011.jpg",2,2,0,1,1,4200,2546,3,3.5,2.5,1.5,0.8
1,2,1,2,59,0,"10110.jpg",4,4,1,1,1,4300,3108,3,3.5,2.5,1.5,0.88
1,2,1,2,60,0,"11010.jpg",2,2,0,1,1,4400,1759,3,3.5,2.5,1.5,0.68
1,2,1,2,61,0,"11001.jpg",1,1,0,0,1,4500,8283,3,3.5,2.5,1.5,0.92
1,2,1,2,62,0,"01011.jpg",2,2,0,1,1,4600,2191,3,3.5,2.5,1.5,0.76
1,2,1,2,63,0,"01101.jpg",1,1,0,0,1,4700,3066,3,3.5,2.5,1.5,0.96
1,2,1,2,64,0,"01110.jpg",2,2,0,1,1,4800,3430,3,3.5,2.5,1.5,0.88
1,2,1,3,65,0,"00000.jpg",1,1,0,0,1,4900,5767,3,3.5,2.5,1.5,0.92
1,2,1,3,66,0,"10000.jpg",1,1,0,0,1,5000,2944,3,3.5,2.5,1.5,0.88
1,2,1,3,67,0,"01110.jpg",2,2,0,1,1,5100,2364,3,3.5,2.5,1.5,0.88
1,2,1,3,68,0,"10110.jpg",4,4,1,1,1,5200,2959,3,3.5,2.5,1.5,0.84
1,2,1,3,69,0,"10001.jpg",1,1,0,0,1,5300,2687,3,3.5,2.5,1.5,0.84
1,2,1,3,70,0,"00110.jpg",2,2,0,1,1,5400,2269,3,3.5,2.5,1.5,0.88
1,2,1,3,71,0,"10001.jpg",1,1,0,0,1,5500,2363,3,3.5,2.5,1.5,0.84
1,2,1,3,72,0,"01010.jpg",2,2,0,1,1,5600,2669,3,3.5,2.5,1.5,0.84
1,2,1,3,73,0,"01110.jpg",2,2,0,1,1,5700,1499,3,3.5,2.5,1.5,0.88
1,2,1,3,74,0,"10001.jpg",1,1,0,0,1,5800,3056,3,3.5,2.5,1.5,0.92
1,2,1,3,75,0,"11011.jpg",2,2,0,1,1,5900,2726,3,3.5,2.5,1.5,0.96
1,2,1,3,76,0,"00010.jpg",2,2,0,1,1,6000,2707,3,3.5,2.5,1.5,0.88
1,2,1,3,77,0,"00011.jpg",2,2,0,1,1,6100,1664,3,3.5,2.5,1.5,0.88
1,2,1,3,78,0,"00101.jpg",1,1,0,0,1,6200,2709,3,3.5,2.5,1.5,0.88
1,2,1,3,79,0,"00110.jpg",2,2,0,1,1,6300,1610,3,3.5,2.5,1.5,0.88
1,2,1,3,80,0,"00111.jpg",2,2,0,1,1,6400,1714,3,3.5,2.5,1.5,0.96
1,2,1,3,81,0,"11001.jpg",1,1,0,0,1,6500,2694,3,3.5,2.5,1.5,0.76
1,2,1,3,82,0,"10111.jpg",4,4,1,1,1,6600,3803,3,3.5,2.5,1.5,0.96
1,2,1,3,83,0,"00001.jpg",1,1,0,0,1,6700,1980,3,3.5,2.5,1.5,0.96
1,2,1,3,84,0,"01100.jpg",1,1,0,0,1,6800,2461,3,3.5,2.5,1.5,0.88
1,2,1,3,85,0,"00100.jpg",1,1,0,0,1,6900,3683,3,3.5,2.5,1.5,0.84
1,2,1,3,86,0,"01111.jpg",2,2,0,1,1,7000,3762,3,3.5,2.5,1.5,0.96
1,2,1,3,87,0,"10100.jpg",3,3,1,0,1,7100,6251,3,3.5,2.5,1.5,0.92
1,2,1,3,88,0,"00001.jpg",1,1,0,0,1,7200,2668,3,3.5,2.5,1.5,1
1,2,1,3,89,0,"00111.jpg",2,2,0,1,1,7300,3801,3,3.5,2.5,1.5,0.88
1,2,1,3,90,0,"01001.jpg",1,1,0,0,1,7400,1978,3,3.5,2.5,1.5,0.92
1,2,1,3,91,0,"10010.jpg",2,2,0,1,1,7500,3197,3,3.5,2.5,1.5,0.84
1,2,1,3,92,0,"11111.jpg",4,4,1,1,1,7600,2860,3,3.5,2.5,1.5,0.92
1,2,1,3,93,0,"00101.jpg",1,1,0,0,1,7700,2274,3,3.5,2.5,1.5,0.84
1,2,1,3,94,0,"11000.jpg",1,1,0,0,1,7800,3215,3,3.5,2.5,1.5,0.92
1,2,1,3,95,0,"11111.jpg",4,4,1,1,1,7900,3432,3,3.5,2.5,1.5,0.92
1,2,1,3,96,0,"10111.jpg",4,4,1,1,1,8000,3400,3,3.5,2.5,1.5,0.92
1,2,1,0,97,1,"10101pt.jpg",3,4,1,0,0,8000,8896,3,3.5,2.5,1.5,0.52
1,2,1,0,98,1,"11011pt.jpg",2,1,0,1,0,8000,16627,3,3.5,2.5,1.5,0.68
1,2,1,0,99,1,"00111pt.jpg",2,1,0,1,0,8000,28175,3,3.5,2.5,1.5,0.52
1,2,1,0,100,1,"00101pt.jpg",1,1,0,0,1,8000,29750,3,3.5,2.5,1.5,0.68
1,2,1,0,101,1,"01000pt.jpg",1,1,0,0,1,8000,19245,3,3.5,2.5,1.5,0.68
1,2,1,0,102,1,"11110pt.jpg",4,3,1,1,0,8000,7993,3,3.5,2.5,1.5,0.6
1,2,1,0,103,1,"01010pt.jpg",2,2,0,1,1,8000,40319,3,3.5,2.5,1.5,0.68
1,2,1,0,104,1,"11111pt.jpg",4,4,1,1,1,8000,5393,3,3.5,2.5,1.5,0.76
1,3,1,1,1,0,"11010.jpg",2,2,0,1,1,100,20309,2,2.5,3,3.5,0.28
1,3,1,1,2,0,"10101.jpg",3,3,1,0,1,200,11634,2,2.5,3,3.5,0.24
1,3,1,1,3,0,"01010.jpg",2,2,0,1,1,300,8626,2,2.5,3,3.5,0.68
1,3,1,1,4,0,"00101.jpg",1,1,0,0,1,400,15417,2,2.5,3,3.5,0.48
1,3,1,1,5,0,"00001.jpg",1,1,0,0,1,500,12657,2,2.5,3,3.5,0.32
1,3,1,1,6,0,"01101.jpg",1,2,0,0,0,400,20287,2,2.5,3,3.5,0.56
1,3,1,1,7,0,"10010.jpg",2,4,0,1,0,300,20956,2,2.5,3,3.5,0.64
1,3,1,1,8,0,"00000.jpg",1,1,0,0,1,400,7102,2,2.5,3,3.5,0.68
1,3,1,1,9,0,"11100.jpg",3,3,1,0,1,500,8611,2,2.5,3,3.5,0.64
1,3,1,1,10,0,"10000.jpg",1,3,0,0,0,400,3124,2,2.5,3,3.5,0.56
1,3,1,1,11,0,"01001.jpg",1,1,0,0,1,500,4198,2,2.5,3,3.5,0.72
1,3,1,1,12,0,"11001.jpg",1,4,0,0,0,400,17544,2,2.5,3,3.5,0.72
1,3,1,1,13,0,"00000.jpg",1,1,0,0,1,500,5505,2,2.5,3,3.5,0.8
1,3,1,1,14,0,"10101.jpg",3,3,1,0,1,600,20144,2,2.5,3,3.5,0.6
1,3,1,1,15,0,"01100.jpg",1,1,0,0,1,700,17905,2,2.5,3,3.5,0.64
1,3,1,1,16,0,"10100.jpg",3,3,1,0,1,800,7334,2,2.5,3,3.5,0.68
1,3,1,1,17,0,"01111.jpg",2,1,0,1,0,700,7866,2,2.5,3,3.5,0.76
1,3,1,1,18,0,"11101.jpg",3,3,1,0,1,800,7985,2,2.5,3,3.5,0.6
1,3,1,1,19,0,"01100.jpg",1,2,0,0,0,700,6018,2,2.5,3,3.5,0.72
1,3,1,1,20,0,"01100.jpg",1,1,0,0,1,800,10330,2,2.5,3,3.5,0.56
1,3,1,1,21,0,"00100.jpg",1,2,0,0,0,700,11230,2,2.5,3,3.5,0.56
1,3,1,1,22,0,"00011.jpg",2,3,0,1,0,600,14196,2,2.5,3,3.5,0.68
1,3,1,1,23,0,"10011.jpg",2,3,0,1,0,500,3603,2,2.5,3,3.5,0.76
1,3,1,1,24,0,"11100.jpg",3,4,1,0,0,400,4645,2,2.5,3,3.5,0.6
1,3,1,1,25,0,"00011.jpg",2,1,0,1,0,300,5915,2,2.5,3,3.5,0.72
1,3,1,1,26,0,"00101.jpg",1,1,0,0,1,400,9991,2,2.5,3,3.5,0.64
1,3,1,1,27,0,"10100.jpg",3,3,1,0,1,500,13152,2,2.5,3,3.5,0.72
1,3,1,1,28,0,"01110.jpg",2,2,0,1,1,600,5251,2,2.5,3,3.5,0.6
1,3,1,1,29,0,"00010.jpg",2,2,0,1,1,700,6426,2,2.5,3,3.5,0.8
1,3,1,1,30,0,"11010.jpg",2,3,0,1,0,600,6410,2,2.5,3,3.5,0.72
1,3,1,1,31,0,"10101.jpg",3,3,1,0,1,700,16362,2,2.5,3,3.5,0.64
1,3,1,1,32,0,"10010.jpg",2,2,0,1,1,800,6380,2,2.5,3,3.5,0.64
1,3,1,2,33,0,"01000.jpg",1,1,0,0,1,900,2631,2,2.5,3,3.5,0.68
1,3,1,2,34,0,"00101.jpg",1,2,0,0,0,800,5230,2,2.5,3,3.5,0.76
1,3,1,2,35,0,"00010.jpg",2,2,0,1,1,900,2853,2,2.5,3,3.5,0.8
1,3,1,2,36,0,"10110.jpg",4,4,1,1,1,1000,9675,2,2.5,3,3.5,0.84
1,3,1,2,37,0,"11111.jpg",4,4,1,1,1,1100,9353,2,2.5,3,3.5,0.8
1,3,1,2,38,0,"01011.jpg",2,2,0,1,1,1200,6162,2,2.5,3,3.5,0.76
1,3,1,2,39,0,"00100.jpg",1,1,0,0,1,1300,9252,2,2.5,3,3.5,0.72
1,3,1,2,40,0,"01000.jpg",1,1,0,0,1,1400,5148,2,2.5,3,3.5,0.92
1,3,1,2,41,0,"01110.jpg",2,2,0,1,1,1500,4694,2,2.5,3,3.5,0.84
1,3,1,2,42,0,"00010.jpg",2,2,0,1,1,1600,3972,2,2.5,3,3.5,0.84
1,3,1,2,43,0,"00110.jpg",2,4,0,1,0,1500,14388,2,2.5,3,3.5,0.76
1,3,1,2,44,0,"11110.jpg",4,4,1,1,1,1600,3574,2,2.5,3,3.5,0.84
1,3,1,2,45,0,"11011.jpg",2,4,0,1,0,1500,9975,2,2.5,3,3.5,0.72
1,3,1,2,46,0,"10011.jpg",2,2,0,1,1,1600,3016,2,2.5,3,3.5,0.88
1,3,1,2,47,0,"10110.jpg",4,4,1,1,1,1700,2488,2,2.5,3,3.5,0.8
1,3,1,2,48,0,"01101.jpg",1,2,0,0,0,1600,10260,2,2.5,3,3.5,0.88
1,3,1,2,49,0,"01001.jpg",1,1,0,0,1,1700,2939,2,2.5,3,3.5,0.92
1,3,1,2,50,0,"00001.jpg",1,1,0,0,1,1800,3254,2,2.5,3,3.5,0.88
1,3,1,2,51,0,"00100.jpg",1,2,0,0,0,1700,3716,2,2.5,3,3.5,0.8
1,3,1,2,52,0,"10001.jpg",1,2,0,0,0,1600,5848,2,2.5,3,3.5,0.76
1,3,1,2,53,0,"01010.jpg",2,2,0,1,1,1700,4566,2,2.5,3,3.5,0.84
1,3,1,2,54,0,"10110.jpg",4,4,1,1,1,1800,3745,2,2.5,3,3.5,0.88
1,3,1,2,55,0,"00110.jpg",2,2,0,1,1,1900,6810,2,2.5,3,3.5,0.88
1,3,1,2,56,0,"10011.jpg",2,2,0,1,1,2000,16650,2,2.5,3,3.5,0.8
1,3,1,2,57,0,"11000.jpg",1,1,0,0,1,2100,6353,2,2.5,3,3.5,0.8
1,3,1,2,58,0,"01010.jpg",2,1,0,1,0,2000,8988,2,2.5,3,3.5,0.8
1,3,1,2,59,0,"11011.jpg",2,2,0,1,1,2100,11445,2,2.5,3,3.5,0.88
1,3,1,2,60,0,"01011.jpg",2,1,0,1,0,2000,3060,2,2.5,3,3.5,0.68
1,3,1,2,61,0,"11111.jpg",4,4,1,1,1,2100,4378,2,2.5,3,3.5,0.92
1,3,1,2,62,0,"10000.jpg",1,1,0,0,1,2200,5595,2,2.5,3,3.5,0.76
1,3,1,2,63,0,"11110.jpg",4,4,1,1,1,2300,2692,2,2.5,3,3.5,0.96
1,3,1,2,64,0,"01001.jpg",1,1,0,0,1,2400,4417,2,2.5,3,3.5,0.88
1,3,1,3,65,0,"01101.jpg",1,1,0,0,1,2500,4616,2,2.5,3,3.5,0.92
1,3,1,3,66,0,"00000.jpg",1,1,0,0,1,2600,5411,2,2.5,3,3.5,0.88
1,3,1,3,67,0,"00011.jpg",2,1,0,1,0,2500,9410,2,2.5,3,3.5,0.88
1,3,1,3,68,0,"00001.jpg",1,1,0,0,1,2600,2819,2,2.5,3,3.5,0.84
1,3,1,3,69,0,"11111.jpg",4,4,1,1,1,2700,2162,2,2.5,3,3.5,0.84
1,3,1,3,70,0,"00111.jpg",2,2,0,1,1,2800,6381,2,2.5,3,3.5,0.88
1,3,1,3,71,0,"11001.jpg",1,3,0,0,0,2700,15381,2,2.5,3,3.5,0.84
1,3,1,3,72,0,"10111.jpg",4,4,1,1,1,2800,2446,2,2.5,3,3.5,0.84
1,3,1,3,73,0,"10100.jpg",3,2,1,0,0,2700,5901,2,2.5,3,3.5,0.88
1,3,1,3,74,0,"11000.jpg",1,1,0,0,1,2800,4481,2,2.5,3,3.5,0.92
1,3,1,3,75,0,"01000.jpg",1,1,0,0,1,2900,2447,2,2.5,3,3.5,0.96
1,3,1,3,76,0,"11101.jpg",3,2,1,0,0,2800,21070,2,2.5,3,3.5,0.88
1,3,1,3,77,0,"10111.jpg",4,4,1,1,1,2900,2252,2,2.5,3,3.5,0.88
1,3,1,3,78,0,"11110.jpg",4,4,1,1,1,3000,1665,2,2.5,3,3.5,0.88
1,3,1,3,79,0,"10001.jpg",1,1,0,0,1,3100,5183,2,2.5,3,3.5,0.88
1,3,1,3,80,0,"01110.jpg",2,2,0,1,1,3200,5704,2,2.5,3,3.5,0.96
1,3,1,3,81,0,"11010.jpg",2,1,0,1,0,3100,9948,2,2.5,3,3.5,0.76
1,3,1,3,82,0,"10001.jpg",1,1,0,0,1,3200,5689,2,2.5,3,3.5,0.96
1,3,1,3,83,0,"11011.jpg",2,3,0,1,0,3100,15941,2,2.5,3,3.5,0.96
1,3,1,3,84,0,"10111.jpg",4,4,1,1,1,3200,2136,2,2.5,3,3.5,0.88
1,3,1,3,85,0,"11101.jpg",3,2,1,0,0,3100,11386,2,2.5,3,3.5,0.84
1,3,1,3,86,0,"10010.jpg",2,2,0,1,1,3200,4460,2,2.5,3,3.5,0.96
1,3,1,3,87,0,"10000.jpg",1,2,0,0,0,3100,9434,2,2.5,3,3.5,0.92
1,3,1,3,88,0,"11001.jpg",1,1,0,0,1,3200,2801,2,2.5,3,3.5,1
1,3,1,3,89,0,"01111.jpg",2,2,0,1,1,3300,4707,2,2.5,3,3.5,0.88
1,3,1,3,90,0,"01011.jpg",2,2,0,1,1,3400,2543,2,2.5,3,3.5,0.92
1,3,1,3,91,0,"11100.jpg",3,3,1,0,1,3500,3971,2,2.5,3,3.5,0.84
1,3,1,3,92,0,"00110.jpg",2,2,0,1,1,3600,4022,2,2.5,3,3.5,0.92
1,3,1,3,93,0,"01111.jpg",2,2,0,1,1,3700,4086,2,2.5,3,3.5,0.84
1,3,1,3,94,0,"11000.jpg",1,1,0,0,1,3800,5731,2,2.5,3,3.5,0.92
1,3,1,3,95,0,"00111.jpg",2,2,0,1,1,3900,6359,2,2.5,3,3.5,0.92
1,3,1,3,96,0,"00111.jpg",2,2,0,1,1,4000,3208,2,2.5,3,3.5,0.92
1,3,1,0,97,1,"11110pt.jpg",4,4,1,1,1,4000,16211,2,2.5,3,3.5,0.52
1,3,1,0,98,1,"00111pt.jpg",2,2,0,1,1,4000,10264,2,2.5,3,3.5,0.68
1,3,1,0,99,1,"01000pt.jpg",1,1,0,0,1,4000,5435,2,2.5,3,3.5,0.52
1,3,1,0,100,1,"10101pt.jpg",3,3,1,0,1,4000,7903,2,2.5,3,3.5,0.68
1,3,1,0,101,1,"01010pt.jpg",2,1,0,1,0,4000,8826,2,2.5,3,3.5,0.68
1,3,1,0,102,1,"00101pt.jpg",1,1,0,0,1,4000,6175,2,2.5,3,3.5,0.6
1,3,1,0,103,1,"11011pt.jpg",2,4,0,1,0,4000,5799,2,2.5,3,3.5,0.68
1,3,1,0,104,1,"11111pt.jpg",4,4,1,1,1,4000,12669,2,2.5,3,3.5,0.76
1,4,1,1,1,0,"01111.jpg",2,3,0,1,0,-100,48406,2.5,2.5,1,1.5,0.28
1,4,1,1,2,0,"00101.jpg",1,4,0,0,0,-200,19829,2.5,2.5,1,1.5,0.24
1,4,1,1,3,0,"11011.jpg",2,3,0,1,0,-300,35910,2.5,2.5,1,1.5,0.68
1,4,1,1,4,0,"01000.jpg",1,2,0,0,0,-400,68272,2.5,2.5,1,1.5,0.48
1,4,1,1,5,0,"01101.jpg",1,2,0,0,0,-500,26749,2.5,2.5,1,1.5,0.32
1,4,1,1,6,0,"10100.jpg",3,4,1,0,0,-600,16191,2.5,2.5,1,1.5,0.56
1,4,1,1,7,0,"00001.jpg",1,1,0,0,1,-500,62568,2.5,2.5,1,1.5,0.64
1,4,1,1,8,0,"01011.jpg",2,2,0,1,1,-400,25659,2.5,2.5,1,1.5,0.68
1,4,1,1,9,0,"00000.jpg",1,1,0,0,1,-300,8336,2.5,2.5,1,1.5,0.64
1,4,1,1,10,0,"01100.jpg",1,1,0,0,1,-200,33867,2.5,2.5,1,1.5,0.56
1,4,1,1,11,0,"11101.jpg",3,3,1,0,1,-100,12714,2.5,2.5,1,1.5,0.72
1,4,1,1,12,0,"01000.jpg",1,1,0,0,1,0,11870,2.5,2.5,1,1.5,0.72
1,4,1,1,13,0,"00011.jpg",2,2,0,1,1,100,5995,2.5,2.5,1,1.5,0.8
1,4,1,1,14,0,"11001.jpg",1,3,0,0,0,0,5341,2.5,2.5,1,1.5,0.6
1,4,1,1,15,0,"00100.jpg",1,1,0,0,1,100,24855,2.5,2.5,1,1.5,0.64
1,4,1,1,16,0,"01110.jpg",2,2,0,1,1,200,7582,2.5,2.5,1,1.5,0.68
1,4,1,1,17,0,"11110.jpg",4,4,1,1,1,300,5383,2.5,2.5,1,1.5,0.76
1,4,1,1,18,0,"00111.jpg",2,2,0,1,1,400,3848,2.5,2.5,1,1.5,0.6
1,4,1,1,19,0,"01000.jpg",1,1,0,0,1,500,3734,2.5,2.5,1,1.5,0.72
1,4,1,1,20,0,"00010.jpg",2,2,0,1,1,600,5577,2.5,2.5,1,1.5,0.56
1,4,1,1,21,0,"10100.jpg",3,3,1,0,1,700,7217,2.5,2.5,1,1.5,0.56
1,4,1,1,22,0,"00010.jpg",2,2,0,1,1,800,2538,2.5,2.5,1,1.5,0.68
1,4,1,1,23,0,"00001.jpg",1,1,0,0,1,900,6037,2.5,2.5,1,1.5,0.76
1,4,1,1,24,0,"11111.jpg",4,4,1,1,1,1000,3180,2.5,2.5,1,1.5,0.6
1,4,1,1,25,0,"11010.jpg",2,4,0,1,0,900,5685,2.5,2.5,1,1.5,0.72
1,4,1,1,26,0,"10001.jpg",1,3,0,0,0,800,29907,2.5,2.5,1,1.5,0.64
1,4,1,1,27,0,"00100.jpg",1,1,0,0,1,900,7814,2.5,2.5,1,1.5,0.72
1,4,1,1,28,0,"10111.jpg",4,2,1,1,0,800,44294,2.5,2.5,1,1.5,0.6
1,4,1,1,29,0,"00110.jpg",2,2,0,1,1,900,10219,2.5,2.5,1,1.5,0.8
1,4,1,1,30,0,"10110.jpg",4,2,1,1,0,800,12483,2.5,2.5,1,1.5,0.72
1,4,1,1,31,0,"11011.jpg",2,4,0,1,0,700,15525,2.5,2.5,1,1.5,0.64
1,4,1,1,32,0,"01010.jpg",2,2,0,1,1,800,15353,2.5,2.5,1,1.5,0.64
1,4,1,2,33,0,"00001.jpg",1,1,0,0,1,900,3051,2.5,2.5,1,1.5,0.68
1,4,1,2,34,0,"10101.jpg",3,3,1,0,1,1000,5801,2.5,2.5,1,1.5,0.76
1,4,1,2,35,0,"01001.jpg",1,1,0,0,1,1100,2459,2.5,2.5,1,1.5,0.8
1,4,1,2,36,0,"00110.jpg",2,2,0,1,1,1200,3145,2.5,2.5,1,1.5,0.84
1,4,1,2,37,0,"00100.jpg",1,1,0,0,1,1300,1972,2.5,2.5,1,1.5,0.8
1,4,1,2,38,0,"10000.jpg",1,3,0,0,0,1200,3279,2.5,2.5,1,1.5,0.76
1,4,1,2,39,0,"01001.jpg",1,1,0,0,1,1300,13602,2.5,2.5,1,1.5,0.72
1,4,1,2,40,0,"00101.jpg",1,1,0,0,1,1400,3156,2.5,2.5,1,1.5,0.92
1,4,1,2,41,0,"10110.jpg",4,4,1,1,1,1500,19111,2.5,2.5,1,1.5,0.84
1,4,1,2,42,0,"00010.jpg",2,2,0,1,1,1600,2634,2.5,2.5,1,1.5,0.84
1,4,1,2,43,0,"00000.jpg",1,1,0,0,1,1700,1649,2.5,2.5,1,1.5,0.76
1,4,1,2,44,0,"01111.jpg",2,2,0,1,1,1800,2496,2.5,2.5,1,1.5,0.84
1,4,1,2,45,0,"11111.jpg",4,4,1,1,1,1900,3709,2.5,2.5,1,1.5,0.72
1,4,1,2,46,0,"10000.jpg",1,1,0,0,1,2000,10344,2.5,2.5,1,1.5,0.88
1,4,1,2,47,0,"00111.jpg",2,2,0,1,1,2100,4885,2.5,2.5,1,1.5,0.8
1,4,1,2,48,0,"01101.jpg",1,1,0,0,1,2200,2113,2.5,2.5,1,1.5,0.88
1,4,1,2,49,0,"00011.jpg",2,2,0,1,1,2300,1718,2.5,2.5,1,1.5,0.92
1,4,1,2,50,0,"01011.jpg",2,2,0,1,1,2400,1842,2.5,2.5,1,1.5,0.88
1,4,1,2,51,0,"11101.jpg",3,1,1,0,0,2300,5824,2.5,2.5,1,1.5,0.8
1,4,1,2,52,0,"01111.jpg",2,2,0,1,1,2400,6568,2.5,2.5,1,1.5,0.76
1,4,1,2,53,0,"10101.jpg",3,3,1,0,1,2500,4706,2.5,2.5,1,1.5,0.84
1,4,1,2,54,0,"00011.jpg",2,2,0,1,1,2600,1615,2.5,2.5,1,1.5,0.88
1,4,1,2,55,0,"10100.jpg",3,1,1,0,0,2500,5063,2.5,2.5,1,1.5,0.88
1,4,1,2,56,0,"00101.jpg",1,1,0,0,1,2600,2813,2.5,2.5,1,1.5,0.8
1,4,1,2,57,0,"10101.jpg",3,3,1,0,1,2700,2654,2.5,2.5,1,1.5,0.8
1,4,1,2,58,0,"11001.jpg",1,1,0,0,1,2800,4597,2.5,2.5,1,1.5,0.8
1,4,1,2,59,0,"10110.jpg",4,4,1,1,1,2900,3198,2.5,2.5,1,1.5,0.88
1,4,1,2,60,0,"01110.jpg",2,2,0,1,1,3000,3054,2.5,2.5,1,1.5,0.68
1,4,1,2,61,0,"10000.jpg",1,1,0,0,1,3100,2884,2.5,2.5,1,1.5,0.92
1,4,1,2,62,0,"11000.jpg",1,1,0,0,1,3200,2226,2.5,2.5,1,1.5,0.76
1,4,1,2,63,0,"10111.jpg",4,4,1,1,1,3300,3698,2.5,2.5,1,1.5,0.96
1,4,1,2,64,0,"11100.jpg",3,3,1,0,1,3400,3645,2.5,2.5,1,1.5,0.88
1,4,1,3,65,0,"11110.jpg",4,4,1,1,1,3500,1750,2.5,2.5,1,1.5,0.92
1,4,1,3,66,0,"10001.jpg",1,1,0,0,1,3600,4398,2.5,2.5,1,1.5,0.88
1,4,1,3,67,0,"11110.jpg",4,4,1,1,1,3700,1512,2.5,2.5,1,1.5,0.88
1,4,1,3,68,0,"11000.jpg",1,1,0,0,1,3800,2268,2.5,2.5,1,1.5,0.84
1,4,1,3,69,0,"10011.jpg",2,2,0,1,1,3900,2289,2.5,2.5,1,1.5,0.84
1,4,1,3,70,0,"10011.jpg",2,2,0,1,1,4000,1887,2.5,2.5,1,1.5,0.88
1,4,1,3,71,0,"11010.jpg",2,2,0,1,1,4100,1796,2.5,2.5,1,1.5,0.84
1,4,1,3,72,0,"11001.jpg",1,1,0,0,1,4200,3971,2.5,2.5,1,1.5,0.84
1,4,1,3,73,0,"10010.jpg",2,2,0,1,1,4300,2254,2.5,2.5,1,1.5,0.88
1,4,1,3,74,0,"00000.jpg",1,1,0,0,1,4400,2125,2.5,2.5,1,1.5,0.92
1,4,1,3,75,0,"00111.jpg",2,2,0,1,1,4500,1912,2.5,2.5,1,1.5,0.96
1,4,1,3,76,0,"10111.jpg",4,4,1,1,1,4600,3773,2.5,2.5,1,1.5,0.88
1,4,1,3,77,0,"01100.jpg",1,1,0,0,1,4700,1877,2.5,2.5,1,1.5,0.88
1,4,1,3,78,0,"10011.jpg",2,2,0,1,1,4800,1570,2.5,2.5,1,1.5,0.88
1,4,1,3,79,0,"11100.jpg",3,3,1,0,1,4900,4221,2.5,2.5,1,1.5,0.88
1,4,1,3,80,0,"10010.jpg",2,2,0,1,1,5000,2165,2.5,2.5,1,1.5,0.96
1,4,1,3,81,0,"11111.jpg",4,4,1,1,1,5100,1503,2.5,2.5,1,1.5,0.76
1,4,1,3,82,0,"01010.jpg",2,2,0,1,1,5200,1579,2.5,2.5,1,1.5,0.96
1,4,1,3,83,0,"01101.jpg",1,1,0,0,1,5300,2900,2.5,2.5,1,1.5,0.96
1,4,1,3,84,0,"10010.jpg",2,2,0,1,1,5400,2064,2.5,2.5,1,1.5,0.88
1,4,1,3,85,0,"01100.jpg",1,1,0,0,1,5500,1438,2.5,2.5,1,1.5,0.84
1,4,1,3,86,0,"11010.jpg",2,2,0,1,1,5600,2229,2.5,2.5,1,1.5,0.96
1,4,1,3,87,0,"01010.jpg",2,2,0,1,1,5700,2253,2.5,2.5,1,1.5,0.92
1,4,1,3,88,0,"00110.jpg",2,2,0,1,1,5800,1947,2.5,2.5,1,1.5,1
1,4,1,3,89,0,"11100.jpg",3,3,1,0,1,5900,3655,2.5,2.5,1,1.5,0.88
1,4,1,3,90,0,"10001.jpg",1,1,0,0,1,6000,2806,2.5,2.5,1,1.5,0.92
1,4,1,3,91,0,"11011.jpg",2,2,0,1,1,6100,1574,2.5,2.5,1,1.5,0.84
1,4,1,3,92,0,"01110.jpg",2,2,0,1,1,6200,1654,2.5,2.5,1,1.5,0.92
1,4,1,3,93,0,"01011.jpg",2,2,0,1,1,6300,1494,2.5,2.5,1,1.5,0.84
1,4,1,3,94,0,"01001.jpg",1,1,0,0,1,6400,3850,2.5,2.5,1,1.5,0.92
1,4,1,3,95,0,"11101.jpg",3,2,1,0,0,6300,3394,2.5,2.5,1,1.5,0.92
1,4,1,3,96,0,"11000.jpg",1,1,0,0,1,6400,5113,2.5,2.5,1,1.5,0.92
1,4,1,0,97,1,"11011pt.jpg",2,3,0,1,0,6400,34862,2.5,2.5,1,1.5,0.52
1,4,1,0,98,1,"11110pt.jpg",4,4,1,1,1,6400,21161,2.5,2.5,1,1.5,0.68
1,4,1,0,99,1,"01010pt.jpg",2,2,0,1,1,6400,14584,2.5,2.5,1,1.5,0.52
1,4,1,0,100,1,"00111pt.jpg",2,2,0,1,1,6400,5519,2.5,2.5,1,1.5,0.68
1,4,1,0,101,1,"00101pt.jpg",1,1,0,0,1,6400,13416,2.5,2.5,1,1.5,0.68
1,4,1,0,102,1,"10101pt.jpg",3,3,1,0,1,6400,12278,2.5,2.5,1,1.5,0.6
1,4,1,0,103,1,"11111pt.jpg",4,4,1,1,1,6400,8176,2.5,2.5,1,1.5,0.68
1,4,1,0,104,1,"01000pt.jpg",1,1,0,0,1,6400,8863,2.5,2.5,1,1.5,0.76
1,5,1,1,1,0,"10101.jpg",3,4,1,0,0,-100,20111,2,3.5,3,1.5,0.28
1,5,1,1,2,0,"10000.jpg",1,4,0,0,0,-200,10841,2,3.5,3,1.5,0.24
1,5,1,1,3,0,"10100.jpg",3,3,1,0,1,-100,6407,2,3.5,3,1.5,0.68
1,5,1,1,4,0,"10000.jpg",1,3,0,0,0,-200,12169,2,3.5,3,1.5,0.48
1,5,1,1,5,0,"11111.jpg",4,2,1,1,0,-300,23122,2,3.5,3,1.5,0.32
1,5,1,1,6,0,"11101.jpg",3,3,1,0,1,-200,33539,2,3.5,3,1.5,0.56
1,5,1,1,7,0,"11101.jpg",3,3,1,0,1,-100,8710,2,3.5,3,1.5,0.64
1,5,1,1,8,0,"10101.jpg",3,4,1,0,0,-200,12859,2,3.5,3,1.5,0.68
1,5,1,1,9,0,"01100.jpg",1,1,0,0,1,-100,5570,2,3.5,3,1.5,0.64
1,5,1,1,10,0,"11000.jpg",1,1,0,0,1,0,24723,2,3.5,3,1.5,0.56
1,5,1,1,11,0,"01111.jpg",2,2,0,1,1,100,7167,2,3.5,3,1.5,0.72
1,5,1,1,12,0,"10010.jpg",2,2,0,1,1,200,16577,2,3.5,3,1.5,0.72
1,5,1,1,13,0,"11010.jpg",2,2,0,1,1,300,6747,2,3.5,3,1.5,0.8
1,5,1,1,14,0,"10100.jpg",3,2,1,0,0,200,28356,2,3.5,3,1.5,0.6
1,5,1,1,15,0,"01011.jpg",2,2,0,1,1,300,4583,2,3.5,3,1.5,0.64
1,5,1,1,16,0,"00011.jpg",2,2,0,1,1,400,2656,2,3.5,3,1.5,0.68
1,5,1,1,17,0,"00011.jpg",2,2,0,1,1,500,1768,2,3.5,3,1.5,0.76
1,5,1,1,18,0,"00001.jpg",1,2,0,0,0,400,2889,2,3.5,3,1.5,0.6
1,5,1,1,19,0,"11000.jpg",1,1,0,0,1,500,14270,2,3.5,3,1.5,0.72
1,5,1,1,20,0,"10010.jpg",2,2,0,1,1,600,7291,2,3.5,3,1.5,0.56
1,5,1,1,21,0,"01100.jpg",1,1,0,0,1,700,8783,2,3.5,3,1.5,0.56
1,5,1,1,22,0,"01010.jpg",2,2,0,1,1,800,3546,2,3.5,3,1.5,0.68
1,5,1,1,23,0,"01101.jpg",1,1,0,0,1,900,3411,2,3.5,3,1.5,0.76
1,5,1,1,24,0,"11011.jpg",2,2,0,1,1,1000,23148,2,3.5,3,1.5,0.6
1,5,1,1,25,0,"11110.jpg",4,4,1,1,1,1100,11686,2,3.5,3,1.5,0.72
1,5,1,1,26,0,"11000.jpg",1,1,0,0,1,1200,9402,2,3.5,3,1.5,0.64
1,5,1,1,27,0,"00100.jpg",1,1,0,0,1,1300,4011,2,3.5,3,1.5,0.72
1,5,1,1,28,0,"00110.jpg",2,2,0,1,1,1400,2251,2,3.5,3,1.5,0.6
1,5,1,1,29,0,"11100.jpg",3,3,1,0,1,1500,9162,2,3.5,3,1.5,0.8
1,5,1,1,30,0,"01000.jpg",1,1,0,0,1,1600,1877,2,3.5,3,1.5,0.72
1,5,1,1,31,0,"10100.jpg",3,3,1,0,1,1700,11355,2,3.5,3,1.5,0.64
1,5,1,1,32,0,"00110.jpg",2,2,0,1,1,1800,34565,2,3.5,3,1.5,0.64
1,5,1,2,33,0,"00100.jpg",1,1,0,0,1,1900,4207,2,3.5,3,1.5,0.68
1,5,1,2,34,0,"00111.jpg",2,2,0,1,1,2000,6481,2,3.5,3,1.5,0.76
1,5,1,2,35,0,"11010.jpg",2,2,0,1,1,2100,4373,2,3.5,3,1.5,0.8
1,5,1,2,36,0,"01001.jpg",1,1,0,0,1,2200,2663,2,3.5,3,1.5,0.84
1,5,1,2,37,0,"01111.jpg",2,2,0,1,1,2300,2989,2,3.5,3,1.5,0.8
1,5,1,2,38,0,"11110.jpg",4,4,1,1,1,2400,4294,2,3.5,3,1.5,0.76
1,5,1,2,39,0,"10111.jpg",4,4,1,1,1,2500,10186,2,3.5,3,1.5,0.72
1,5,1,2,40,0,"10011.jpg",2,2,0,1,1,2600,12083,2,3.5,3,1.5,0.92
1,5,1,2,41,0,"10011.jpg",2,2,0,1,1,2700,1887,2,3.5,3,1.5,0.84
1,5,1,2,42,0,"10111.jpg",4,4,1,1,1,2800,3629,2,3.5,3,1.5,0.84
1,5,1,2,43,0,"01010.jpg",2,2,0,1,1,2900,2347,2,3.5,3,1.5,0.76
1,5,1,2,44,0,"00000.jpg",1,1,0,0,1,3000,3287,2,3.5,3,1.5,0.84
1,5,1,2,45,0,"11001.jpg",1,1,0,0,1,3100,2515,2,3.5,3,1.5,0.72
1,5,1,2,46,0,"01110.jpg",2,2,0,1,1,3200,8752,2,3.5,3,1.5,0.88
1,5,1,2,47,0,"00001.jpg",1,1,0,0,1,3300,2841,2,3.5,3,1.5,0.8
1,5,1,2,48,0,"11111.jpg",4,4,1,1,1,3400,4249,2,3.5,3,1.5,0.88
1,5,1,2,49,0,"00001.jpg",1,1,0,0,1,3500,1759,2,3.5,3,1.5,0.92
1,5,1,2,50,0,"01110.jpg",2,2,0,1,1,3600,2593,2,3.5,3,1.5,0.88
1,5,1,2,51,0,"00111.jpg",2,2,0,1,1,3700,2194,2,3.5,3,1.5,0.8
1,5,1,2,52,0,"01110.jpg",2,2,0,1,1,3800,2034,2,3.5,3,1.5,0.76
1,5,1,2,53,0,"11010.jpg",2,2,0,1,1,3900,2666,2,3.5,3,1.5,0.84
1,5,1,2,54,0,"10000.jpg",1,1,0,0,1,4000,1864,2,3.5,3,1.5,0.88
1,5,1,2,55,0,"10001.jpg",1,1,0,0,1,4100,1807,2,3.5,3,1.5,0.88
1,5,1,2,56,0,"00010.jpg",2,2,0,1,1,4200,1519,2,3.5,3,1.5,0.8
1,5,1,2,57,0,"00101.jpg",1,1,0,0,1,4300,5083,2,3.5,3,1.5,0.8
1,5,1,2,58,0,"11001.jpg",1,1,0,0,1,4400,2991,2,3.5,3,1.5,0.8
1,5,1,2,59,0,"01011.jpg",2,2,0,1,1,4500,2906,2,3.5,3,1.5,0.88
1,5,1,2,60,0,"11111.jpg",4,4,1,1,1,4600,4991,2,3.5,3,1.5,0.68
1,5,1,2,61,0,"00110.jpg",2,2,0,1,1,4700,1910,2,3.5,3,1.5,0.92
1,5,1,2,62,0,"11101.jpg",3,3,1,0,1,4800,4546,2,3.5,3,1.5,0.76
1,5,1,2,63,0,"01100.jpg",1,1,0,0,1,4900,3239,2,3.5,3,1.5,0.96
1,5,1,2,64,0,"10110.jpg",4,4,1,1,1,5000,2517,2,3.5,3,1.5,0.88
1,5,1,3,65,0,"10011.jpg",2,2,0,1,1,5100,5159,2,3.5,3,1.5,0.92
1,5,1,3,66,0,"01001.jpg",1,1,0,0,1,5200,2642,2,3.5,3,1.5,0.88
1,5,1,3,67,0,"00100.jpg",1,1,0,0,1,5300,2696,2,3.5,3,1.5,0.88
1,5,1,3,68,0,"01010.jpg",2,2,0,1,1,5400,1862,2,3.5,3,1.5,0.84
1,5,1,3,69,0,"00000.jpg",1,1,0,0,1,5500,1604,2,3.5,3,1.5,0.84
1,5,1,3,70,0,"10001.jpg",1,1,0,0,1,5600,1932,2,3.5,3,1.5,0.88
1,5,1,3,71,0,"11011.jpg",2,2,0,1,1,5700,2945,2,3.5,3,1.5,0.84
1,5,1,3,72,0,"10101.jpg",3,3,1,0,1,5800,5138,2,3.5,3,1.5,0.84
1,5,1,3,73,0,"11110.jpg",4,4,1,1,1,5900,3239,2,3.5,3,1.5,0.88
1,5,1,3,74,0,"11100.jpg",3,3,1,0,1,6000,2295,2,3.5,3,1.5,0.92
1,5,1,3,75,0,"10111.jpg",4,4,1,1,1,6100,4122,2,3.5,3,1.5,0.96
1,5,1,3,76,0,"01101.jpg",1,1,0,0,1,6200,2157,2,3.5,3,1.5,0.88
1,5,1,3,77,0,"00000.jpg",1,1,0,0,1,6300,1823,2,3.5,3,1.5,0.88
1,5,1,3,78,0,"00101.jpg",1,1,0,0,1,6400,1952,2,3.5,3,1.5,0.88
1,5,1,3,79,0,"10010.jpg",2,2,0,1,1,6500,3051,2,3.5,3,1.5,0.88
1,5,1,3,80,0,"11011.jpg",2,2,0,1,1,6600,1721,2,3.5,3,1.5,0.96
1,5,1,3,81,0,"01101.jpg",1,1,0,0,1,6700,3349,2,3.5,3,1.5,0.76
1,5,1,3,82,0,"01001.jpg",1,1,0,0,1,6800,2879,2,3.5,3,1.5,0.96
1,5,1,3,83,0,"01000.jpg",1,1,0,0,1,6900,1317,2,3.5,3,1.5,0.96
1,5,1,3,84,0,"01111.jpg",2,2,0,1,1,7000,5562,2,3.5,3,1.5,0.88
1,5,1,3,85,0,"01000.jpg",1,1,0,0,1,7100,2027,2,3.5,3,1.5,0.84
1,5,1,3,86,0,"11001.jpg",1,1,0,0,1,7200,5667,2,3.5,3,1.5,0.96
1,5,1,3,87,0,"10001.jpg",1,1,0,0,1,7300,1857,2,3.5,3,1.5,0.92
1,5,1,3,88,0,"00010.jpg",2,2,0,1,1,7400,2153,2,3.5,3,1.5,1
1,5,1,3,89,0,"00101.jpg",1,1,0,0,1,7500,5370,2,3.5,3,1.5,0.88
1,5,1,3,90,0,"10110.jpg",4,4,1,1,1,7600,3445,2,3.5,3,1.5,0.92
1,5,1,3,91,0,"00011.jpg",2,2,0,1,1,7700,2051,2,3.5,3,1.5,0.84
1,5,1,3,92,0,"11100.jpg",3,3,1,0,1,7800,3577,2,3.5,3,1.5,0.92
1,5,1,3,93,0,"00010.jpg",2,2,0,1,1,7900,2148,2,3.5,3,1.5,0.84
1,5,1,3,94,0,"00111.jpg",2,2,0,1,1,8000,4093,2,3.5,3,1.5,0.92
1,5,1,3,95,0,"01011.jpg",2,2,0,1,1,8100,1594,2,3.5,3,1.5,0.92
1,5,1,3,96,0,"10110.jpg",4,4,1,1,1,8200,2196,2,3.5,3,1.5,0.92
1,5,1,0,97,1,"11011pt.jpg",2,1,0,1,0,8200,14047,2,3.5,3,1.5,0.52
1,5,1,0,98,1,"10101pt.jpg",3,4,1,0,0,8200,21811,2,3.5,3,1.5,0.68
1,5,1,0,99,1,"11111pt.jpg",4,3,1,1,0,8200,16712,2,3.5,3,1.5,0.52
1,5,1,0,100,1,"00101pt.jpg",1,2,0,0,0,8200,8850,2,3.5,3,1.5,0.68
1,5,1,0,101,1,"01010pt.jpg",2,2,0,1,1,8200,5349,2,3.5,3,1.5,0.68
1,5,1,0,102,1,"00111pt.jpg",2,1,0,1,0,8200,26565,2,3.5,3,1.5,0.6
1,5,1,0,103,1,"11110pt.jpg",4,4,1,1,1,8200,11988,2,3.5,3,1.5,0.68
1,5,1,0,104,1,"01000pt.jpg",1,2,0,0,0,8200,5179,2,3.5,3,1.5,0.76
1,6,1,1,1,0,"10110.jpg",4,3,1,1,0,-100,28755,2.5,3.5,1.5,1,0.28
1,6,1,1,2,0,"00000.jpg",1,2,0,0,0,-200,23915,2.5,3.5,1.5,1,0.24
1,6,1,1,3,0,"11111.jpg",4,4,1,1,1,-100,23599,2.5,3.5,1.5,1,0.68
1,6,1,1,4,0,"10010.jpg",2,3,0,1,0,-200,11045,2.5,3.5,1.5,1,0.48
1,6,1,1,5,0,"11011.jpg",2,4,0,1,0,-300,3588,2.5,3.5,1.5,1,0.32
1,6,1,1,6,0,"00110.jpg",2,2,0,1,1,-200,30518,2.5,3.5,1.5,1,0.56
1,6,1,1,7,0,"01111.jpg",2,2,0,1,1,-100,13434,2.5,3.5,1.5,1,0.64
1,6,1,1,8,0,"11100.jpg",3,1,1,0,0,-200,20328,2.5,3.5,1.5,1,0.68
1,6,1,1,9,0,"01111.jpg",2,2,0,1,1,-100,6485,2.5,3.5,1.5,1,0.64
1,6,1,1,10,0,"10001.jpg",1,3,0,0,0,-200,4177,2.5,3.5,1.5,1,0.56
1,6,1,1,11,0,"01010.jpg",2,2,0,1,1,-100,6076,2.5,3.5,1.5,1,0.72
1,6,1,1,12,0,"01110.jpg",2,2,0,1,1,0,3968,2.5,3.5,1.5,1,0.72
1,6,1,1,13,0,"11000.jpg",1,1,0,0,1,100,51674,2.5,3.5,1.5,1,0.8
1,6,1,1,14,0,"11001.jpg",1,3,0,0,0,0,23760,2.5,3.5,1.5,1,0.6
1,6,1,1,15,0,"11101.jpg",3,4,1,0,0,-100,26905,2.5,3.5,1.5,1,0.64
1,6,1,1,16,0,"10100.jpg",3,3,1,0,1,0,3365,2.5,3.5,1.5,1,0.68
1,6,1,1,17,0,"11000.jpg",1,1,0,0,1,100,4440,2.5,3.5,1.5,1,0.76
1,6,1,1,18,0,"10100.jpg",3,3,1,0,1,200,3127,2.5,3.5,1.5,1,0.6
1,6,1,1,19,0,"00010.jpg",2,2,0,1,1,300,24403,2.5,3.5,1.5,1,0.72
1,6,1,1,20,0,"10111.jpg",4,4,1,1,1,400,8332,2.5,3.5,1.5,1,0.56
1,6,1,1,21,0,"00110.jpg",2,2,0,1,1,500,15510,2.5,3.5,1.5,1,0.56
1,6,1,1,22,0,"11111.jpg",4,4,1,1,1,600,3680,2.5,3.5,1.5,1,0.68
1,6,1,1,23,0,"10110.jpg",4,4,1,1,1,700,2437,2.5,3.5,1.5,1,0.76
1,6,1,1,24,0,"01011.jpg",2,2,0,1,1,800,3267,2.5,3.5,1.5,1,0.6
1,6,1,1,25,0,"01110.jpg",2,2,0,1,1,900,2241,2.5,3.5,1.5,1,0.72
1,6,1,1,26,0,"11101.jpg",3,3,1,0,1,1000,7671,2.5,3.5,1.5,1,0.64
1,6,1,1,27,0,"11110.jpg",4,4,1,1,1,1100,2038,2.5,3.5,1.5,1,0.72
1,6,1,1,28,0,"00100.jpg",1,1,0,0,1,1200,3197,2.5,3.5,1.5,1,0.6
1,6,1,1,29,0,"11110.jpg",4,4,1,1,1,1300,3637,2.5,3.5,1.5,1,0.8
1,6,1,1,30,0,"01100.jpg",1,1,0,0,1,1400,1819,2.5,3.5,1.5,1,0.72
1,6,1,1,31,0,"00111.jpg",2,2,0,1,1,1500,2874,2.5,3.5,1.5,1,0.64
1,6,1,1,32,0,"11100.jpg",3,3,1,0,1,1600,3200,2.5,3.5,1.5,1,0.64
1,6,1,2,33,0,"11011.jpg",2,4,0,1,0,1500,3163,2.5,3.5,1.5,1,0.68
1,6,1,2,34,0,"01001.jpg",1,1,0,0,1,1600,20811,2.5,3.5,1.5,1,0.76
1,6,1,2,35,0,"00101.jpg",1,1,0,0,1,1700,2228,2.5,3.5,1.5,1,0.8
1,6,1,2,36,0,"01010.jpg",2,2,0,1,1,1800,2061,2.5,3.5,1.5,1,0.84
1,6,1,2,37,0,"10010.jpg",2,4,0,1,0,1700,7266,2.5,3.5,1.5,1,0.8
1,6,1,2,38,0,"10010.jpg",2,2,0,1,1,1800,39009,2.5,3.5,1.5,1,0.76
1,6,1,2,39,0,"00000.jpg",1,1,0,0,1,1900,2017,2.5,3.5,1.5,1,0.72
1,6,1,2,40,0,"00110.jpg",2,2,0,1,1,2000,2377,2.5,3.5,1.5,1,0.92
1,6,1,2,41,0,"00011.jpg",2,2,0,1,1,2100,2347,2.5,3.5,1.5,1,0.84
1,6,1,2,42,0,"10100.jpg",3,3,1,0,1,2200,3332,2.5,3.5,1.5,1,0.84
1,6,1,2,43,0,"01010.jpg",2,2,0,1,1,2300,2777,2.5,3.5,1.5,1,0.76
1,6,1,2,44,0,"10101.jpg",3,3,1,0,1,2400,1962,2.5,3.5,1.5,1,0.84
1,6,1,2,45,0,"10111.jpg",4,4,1,1,1,2500,3164,2.5,3.5,1.5,1,0.72
1,6,1,2,46,0,"01011.jpg",2,2,0,1,1,2600,2558,2.5,3.5,1.5,1,0.88
1,6,1,2,47,0,"00100.jpg",1,1,0,0,1,2700,1393,2.5,3.5,1.5,1,0.8
1,6,1,2,48,0,"01000.jpg",1,1,0,0,1,2800,2250,2.5,3.5,1.5,1,0.88
1,6,1,2,49,0,"01101.jpg",1,1,0,0,1,2900,1561,2.5,3.5,1.5,1,0.92
1,6,1,2,50,0,"11010.jpg",2,2,0,1,1,3000,6475,2.5,3.5,1.5,1,0.88
1,6,1,2,51,0,"11010.jpg",2,2,0,1,1,3100,2736,2.5,3.5,1.5,1,0.8
1,6,1,2,52,0,"01000.jpg",1,1,0,0,1,3200,4427,2.5,3.5,1.5,1,0.76
1,6,1,2,53,0,"01110.jpg",2,2,0,1,1,3300,2019,2.5,3.5,1.5,1,0.84
1,6,1,2,54,0,"00000.jpg",1,1,0,0,1,3400,1563,2.5,3.5,1.5,1,0.88
1,6,1,2,55,0,"00011.jpg",2,2,0,1,1,3500,2590,2.5,3.5,1.5,1,0.88
1,6,1,2,56,0,"10011.jpg",2,2,0,1,1,3600,9198,2.5,3.5,1.5,1,0.8
1,6,1,2,57,0,"00010.jpg",2,2,0,1,1,3700,1751,2.5,3.5,1.5,1,0.8
1,6,1,2,58,0,"00011.jpg",2,2,0,1,1,3800,1850,2.5,3.5,1.5,1,0.8
1,6,1,2,59,0,"00101.jpg",1,1,0,0,1,3900,1313,2.5,3.5,1.5,1,0.88
1,6,1,2,60,0,"01100.jpg",1,1,0,0,1,4000,2093,2.5,3.5,1.5,1,0.68
1,6,1,2,61,0,"10011.jpg",2,2,0,1,1,4100,4123,2.5,3.5,1.5,1,0.92
1,6,1,2,62,0,"00111.jpg",2,2,0,1,1,4200,2390,2.5,3.5,1.5,1,0.76
1,6,1,2,63,0,"00101.jpg",1,1,0,0,1,4300,1263,2.5,3.5,1.5,1,0.96
1,6,1,2,64,0,"11010.jpg",2,2,0,1,1,4400,2334,2.5,3.5,1.5,1,0.88
1,6,1,3,65,0,"10001.jpg",1,1,0,0,1,4500,2945,2.5,3.5,1.5,1,0.92
1,6,1,3,66,0,"01100.jpg",1,1,0,0,1,4600,4862,2.5,3.5,1.5,1,0.88
1,6,1,3,67,0,"01101.jpg",1,1,0,0,1,4700,3899,2.5,3.5,1.5,1,0.88
1,6,1,3,68,0,"10111.jpg",4,4,1,1,1,4800,3312,2.5,3.5,1.5,1,0.84
1,6,1,3,69,0,"11111.jpg",4,4,1,1,1,4900,1931,2.5,3.5,1.5,1,0.84
1,6,1,3,70,0,"00111.jpg",2,2,0,1,1,5000,6534,2.5,3.5,1.5,1,0.88
1,6,1,3,71,0,"11001.jpg",1,1,0,0,1,5100,2569,2.5,3.5,1.5,1,0.84
1,6,1,3,72,0,"01011.jpg",2,2,0,1,1,5200,2338,2.5,3.5,1.5,1,0.84
1,6,1,3,73,0,"10110.jpg",4,4,1,1,1,5300,2126,2.5,3.5,1.5,1,0.88
1,6,1,3,74,0,"10011.jpg",2,2,0,1,1,5400,1977,2.5,3.5,1.5,1,0.92
1,6,1,3,75,0,"11011.jpg",2,2,0,1,1,5500,1441,2.5,3.5,1.5,1,0.96
1,6,1,3,76,0,"10101.jpg",3,1,1,0,0,5400,1592,2.5,3.5,1.5,1,0.88
1,6,1,3,77,0,"11110.jpg",4,4,1,1,1,5500,5993,2.5,3.5,1.5,1,0.88
1,6,1,3,78,0,"10001.jpg",1,1,0,0,1,5600,1976,2.5,3.5,1.5,1,0.88
1,6,1,3,79,0,"00001.jpg",1,1,0,0,1,5700,8523,2.5,3.5,1.5,1,0.88
1,6,1,3,80,0,"00010.jpg",2,2,0,1,1,5800,1582,2.5,3.5,1.5,1,0.96
1,6,1,3,81,0,"10000.jpg",1,1,0,0,1,5900,1823,2.5,3.5,1.5,1,0.76
1,6,1,3,82,0,"10000.jpg",1,1,0,0,1,6000,1880,2.5,3.5,1.5,1,0.96
1,6,1,3,83,0,"00100.jpg",1,1,0,0,1,6100,4885,2.5,3.5,1.5,1,0.96
1,6,1,3,84,0,"11100.jpg",3,3,1,0,1,6200,5427,2.5,3.5,1.5,1,0.88
1,6,1,3,85,0,"00001.jpg",1,1,0,0,1,6300,2818,2.5,3.5,1.5,1,0.84
1,6,1,3,86,0,"11001.jpg",1,1,0,0,1,6400,2322,2.5,3.5,1.5,1,0.96
1,6,1,3,87,0,"01101.jpg",1,1,0,0,1,6500,2215,2.5,3.5,1.5,1,0.92
1,6,1,3,88,0,"10101.jpg",3,3,1,0,1,6600,2918,2.5,3.5,1.5,1,1
1,6,1,3,89,0,"01001.jpg",1,1,0,0,1,6700,3339,2.5,3.5,1.5,1,0.88
1,6,1,3,90,0,"00001.jpg",1,1,0,0,1,6800,1304,2.5,3.5,1.5,1,0.92
1,6,1,3,91,0,"01001.jpg",1,1,0,0,1,6900,1563,2.5,3.5,1.5,1,0.84
1,6,1,3,92,0,"11101.jpg",3,3,1,0,1,7000,2269,2.5,3.5,1.5,1,0.92
1,6,1,3,93,0,"01000.jpg",1,1,0,0,1,7100,2260,2.5,3.5,1.5,1,0.84
1,6,1,3,94,0,"11000.jpg",1,1,0,0,1,7200,7898,2.5,3.5,1.5,1,0.92
1,6,1,3,95,0,"01111.jpg",2,2,0,1,1,7300,3167,2.5,3.5,1.5,1,0.92
1,6,1,3,96,0,"10000.jpg",1,1,0,0,1,7400,2849,2.5,3.5,1.5,1,0.92
1,6,1,0,97,1,"11111pt.jpg",4,3,1,1,0,7400,24758,2.5,3.5,1.5,1,0.52
1,6,1,0,98,1,"10101pt.jpg",3,2,1,0,0,7400,30093,2.5,3.5,1.5,1,0.68
1,6,1,0,99,1,"11011pt.jpg",2,4,0,1,0,7400,39559,2.5,3.5,1.5,1,0.52
1,6,1,0,100,1,"01010pt.jpg",2,2,0,1,1,7400,11583,2.5,3.5,1.5,1,0.68
1,6,1,0,101,1,"11110pt.jpg",4,3,1,1,0,7400,10789,2.5,3.5,1.5,1,0.68
1,6,1,0,102,1,"01000pt.jpg",1,1,0,0,1,7400,24147,2.5,3.5,1.5,1,0.6
1,6,1,0,103,1,"00101pt.jpg",1,2,0,0,0,7400,12292,2.5,3.5,1.5,1,0.68
1,6,1,0,104,1,"00111pt.jpg",2,1,0,1,0,7400,30757,2.5,3.5,1.5,1,0.76
1,7,1,1,1,0,"00110.jpg",2,3,0,1,0,-100,59756,3,1,1.5,1,0.28
1,7,1,1,2,0,"11000.jpg",1,4,0,0,0,-200,33182,3,1,1.5,1,0.24
1,7,1,1,3,0,"01011.jpg",2,2,0,1,1,-100,22341,3,1,1.5,1,0.68
1,7,1,1,4,0,"10000.jpg",1,1,0,0,1,0,32111,3,1,1.5,1,0.48
1,7,1,1,5,0,"11011.jpg",2,1,0,1,0,-100,64659,3,1,1.5,1,0.32
1,7,1,1,6,0,"01111.jpg",2,3,0,1,0,-200,47409,3,1,1.5,1,0.56
1,7,1,1,7,0,"10101.jpg",3,2,1,0,0,-300,31898,3,1,1.5,1,0.64
1,7,1,1,8,0,"11111.jpg",4,2,1,1,0,-400,19143,3,1,1.5,1,0.68
1,7,1,1,9,0,"00111.jpg",2,4,0,1,0,-500,126174,3,1,1.5,1,0.64
1,7,1,1,10,0,"10100.jpg",3,2,1,0,0,-600,24984,3,1,1.5,1,0.56
1,7,1,1,11,0,"00000.jpg",1,1,0,0,1,-500,39655,3,1,1.5,1,0.72
1,7,1,1,12,0,"11000.jpg",1,2,0,0,0,-600,7120,3,1,1.5,1,0.72
1,7,1,1,13,0,"00001.jpg",1,1,0,0,1,-500,33402,3,1,1.5,1,0.8
1,7,1,1,14,0,"01011.jpg",2,4,0,1,0,-600,20418,3,1,1.5,1,0.6
1,7,1,1,15,0,"11110.jpg",4,4,1,1,1,-500,5355,3,1,1.5,1,0.64
1,7,1,1,16,0,"01010.jpg",2,2,0,1,1,-400,15395,3,1,1.5,1,0.68
1,7,1,1,17,0,"11101.jpg",3,3,1,0,1,-300,28668,3,1,1.5,1,0.76
1,7,1,1,18,0,"10010.jpg",2,4,0,1,0,-400,37850,3,1,1.5,1,0.6
1,7,1,1,19,0,"01001.jpg",1,1,0,0,1,-300,39057,3,1,1.5,1,0.72
1,7,1,1,20,0,"00101.jpg",1,4,0,0,0,-400,33542,3,1,1.5,1,0.56
1,7,1,1,21,0,"01111.jpg",2,1,0,1,0,-500,19554,3,1,1.5,1,0.56
1,7,1,1,22,0,"00100.jpg",1,4,0,0,0,-600,41570,3,1,1.5,1,0.68
1,7,1,1,23,0,"01001.jpg",1,3,0,0,0,-700,48691,3,1,1.5,1,0.76
1,7,1,1,24,0,"00000.jpg",1,2,0,0,0,-800,6208,3,1,1.5,1,0.6
1,7,1,1,25,0,"00000.jpg",1,1,0,0,1,-700,12944,3,1,1.5,1,0.72
1,7,1,1,26,0,"00100.jpg",1,2,0,0,0,-800,14548,3,1,1.5,1,0.64
1,7,1,1,27,0,"00110.jpg",2,2,0,1,1,-700,42757,3,1,1.5,1,0.72
1,7,1,1,28,0,"01101.jpg",1,1,0,0,1,-600,14224,3,1,1.5,1,0.6
1,7,1,1,29,0,"11111.jpg",4,4,1,1,1,-500,41543,3,1,1.5,1,0.8
1,7,1,1,30,0,"00111.jpg",2,2,0,1,1,-400,29346,3,1,1.5,1,0.72
1,7,1,1,31,0,"10000.jpg",1,3,0,0,0,-500,39244,3,1,1.5,1,0.64
1,7,1,1,32,0,"10111.jpg",4,2,1,1,0,-600,47001,3,1,1.5,1,0.64
1,7,1,2,33,0,"11011.jpg",2,3,0,1,0,-700,73833,3,1,1.5,1,0.68
1,7,1,2,34,0,"10001.jpg",1,3,0,0,0,-800,8815,3,1,1.5,1,0.76
1,7,1,2,35,0,"00101.jpg",1,2,0,0,0,-900,30838,3,1,1.5,1,0.8
1,7,1,2,36,0,"01000.jpg",1,1,0,0,1,-800,8317,3,1,1.5,1,0.84
1,7,1,2,37,0,"10011.jpg",2,4,0,1,0,-900,17762,3,1,1.5,1,0.8
1,7,1,2,38,0,"01010.jpg",2,2,0,1,1,-800,2228,3,1,1.5,1,0.76
1,7,1,2,39,0,"00011.jpg",2,2,0,1,1,-700,1562,3,1,1.5,1,0.72
1,7,1,2,40,0,"10010.jpg",2,2,0,1,1,-600,18245,3,1,1.5,1,0.92
1,7,1,2,41,0,"01110.jpg",2,2,0,1,1,-500,30691,3,1,1.5,1,0.84
1,7,1,2,42,0,"00101.jpg",1,2,0,0,0,-600,22120,3,1,1.5,1,0.84
1,7,1,2,43,0,"10111.jpg",4,4,1,1,1,-500,32811,3,1,1.5,1,0.76
1,7,1,2,44,0,"10110.jpg",4,4,1,1,1,-400,7194,3,1,1.5,1,0.84
1,7,1,2,45,0,"10101.jpg",3,1,1,0,0,-500,26419,3,1,1.5,1,0.72
1,7,1,2,46,0,"01010.jpg",2,2,0,1,1,-400,6937,3,1,1.5,1,0.88
1,7,1,2,47,0,"00001.jpg",1,1,0,0,1,-300,24132,3,1,1.5,1,0.8
1,7,1,2,48,0,"11100.jpg",3,3,1,0,1,-200,18424,3,1,1.5,1,0.88
1,7,1,2,49,0,"11101.jpg",3,3,1,0,1,-100,2658,3,1,1.5,1,0.92
1,7,1,2,50,0,"10111.jpg",4,4,1,1,1,0,9527,3,1,1.5,1,0.88
1,7,1,2,51,0,"01110.jpg",2,4,0,1,0,-100,8162,3,1,1.5,1,0.8
1,7,1,2,52,0,"11101.jpg",3,3,1,0,1,0,3476,3,1,1.5,1,0.76
1,7,1,2,53,0,"00010.jpg",2,2,0,1,1,100,6906,3,1,1.5,1,0.84
1,7,1,2,54,0,"10100.jpg",3,3,1,0,1,200,25207,3,1,1.5,1,0.88
1,7,1,2,55,0,"10100.jpg",3,3,1,0,1,300,3504,3,1,1.5,1,0.88
1,7,1,2,56,0,"00011.jpg",2,2,0,1,1,400,1781,3,1,1.5,1,0.8
1,7,1,2,57,0,"10011.jpg",2,2,0,1,1,500,21663,3,1,1.5,1,0.8
1,7,1,2,58,0,"00010.jpg",2,2,0,1,1,600,1364,3,1,1.5,1,0.8
1,7,1,2,59,0,"10011.jpg",2,2,0,1,1,700,4014,3,1,1.5,1,0.88
1,7,1,2,60,0,"01100.jpg",1,3,0,0,0,600,20293,3,1,1.5,1,0.68
1,7,1,2,61,0,"11110.jpg",4,4,1,1,1,700,19786,3,1,1.5,1,0.92
1,7,1,2,62,0,"11100.jpg",3,3,1,0,1,800,5467,3,1,1.5,1,0.76
1,7,1,2,63,0,"11000.jpg",1,3,0,0,0,700,14921,3,1,1.5,1,0.96
1,7,1,2,64,0,"01110.jpg",2,4,0,1,0,600,11732,3,1,1.5,1,0.88
1,7,1,3,65,0,"01101.jpg",1,1,0,0,1,700,25439,3,1,1.5,1,0.92
1,7,1,3,66,0,"11100.jpg",3,3,1,0,1,800,5128,3,1,1.5,1,0.88
1,7,1,3,67,0,"01000.jpg",1,1,0,0,1,900,11523,3,1,1.5,1,0.88
1,7,1,3,68,0,"00111.jpg",2,4,0,1,0,800,36934,3,1,1.5,1,0.84
1,7,1,3,69,0,"11110.jpg",4,3,1,1,0,700,13866,3,1,1.5,1,0.84
1,7,1,3,70,0,"11001.jpg",1,1,0,0,1,800,7564,3,1,1.5,1,0.88
1,7,1,3,71,0,"10110.jpg",4,4,1,1,1,900,9912,3,1,1.5,1,0.84
1,7,1,3,72,0,"11010.jpg",2,4,0,1,0,800,19187,3,1,1.5,1,0.84
1,7,1,3,73,0,"01111.jpg",2,4,0,1,0,700,15789,3,1,1.5,1,0.88
1,7,1,3,74,0,"00011.jpg",2,2,0,1,1,800,4437,3,1,1.5,1,0.92
1,7,1,3,75,0,"00010.jpg",2,2,0,1,1,900,1701,3,1,1.5,1,0.96
1,7,1,3,76,0,"01100.jpg",1,1,0,0,1,1000,5921,3,1,1.5,1,0.88
1,7,1,3,77,0,"11111.jpg",4,2,1,1,0,900,26198,3,1,1.5,1,0.88
1,7,1,3,78,0,"01011.jpg",2,2,0,1,1,1000,9180,3,1,1.5,1,0.88
1,7,1,3,79,0,"10000.jpg",1,1,0,0,1,1100,12878,3,1,1.5,1,0.88
1,7,1,3,80,0,"01001.jpg",1,1,0,0,1,1200,3348,3,1,1.5,1,0.96
1,7,1,3,81,0,"11010.jpg",2,4,0,1,0,1100,55079,3,1,1.5,1,0.76
1,7,1,3,82,0,"11001.jpg",1,1,0,0,1,1200,18884,3,1,1.5,1,0.96
1,7,1,3,83,0,"11001.jpg",1,1,0,0,1,1300,2386,3,1,1.5,1,0.96
1,7,1,3,84,0,"10110.jpg",4,2,1,1,0,1200,15635,3,1,1.5,1,0.88
1,7,1,3,85,0,"00110.jpg",2,2,0,1,1,1300,3583,3,1,1.5,1,0.84
1,7,1,3,86,0,"01000.jpg",1,1,0,0,1,1400,3481,3,1,1.5,1,0.96
1,7,1,3,87,0,"11011.jpg",2,2,0,1,1,1500,11854,3,1,1.5,1,0.92
1,7,1,3,88,0,"10001.jpg",1,1,0,0,1,1600,3270,3,1,1.5,1,1
1,7,1,3,89,0,"10001.jpg",1,1,0,0,1,1700,34867,3,1,1.5,1,0.88
1,7,1,3,90,0,"01100.jpg",1,1,0,0,1,1800,1489,3,1,1.5,1,0.92
1,7,1,3,91,0,"10101.jpg",3,1,1,0,0,1700,686,3,1,1.5,1,0.84
1,7,1,3,92,0,"00100.jpg",1,4,0,0,0,1600,16009,3,1,1.5,1,0.92
1,7,1,3,93,0,"11010.jpg",2,4,0,1,0,1500,15915,3,1,1.5,1,0.84
1,7,1,3,94,0,"10010.jpg",2,2,0,1,1,1600,3934,3,1,1.5,1,0.92
1,7,1,3,95,0,"01101.jpg",1,1,0,0,1,1700,2386,3,1,1.5,1,0.92
1,7,1,3,96,0,"00001.jpg",1,1,0,0,1,1800,9963,3,1,1.5,1,0.92
1,7,1,0,97,1,"11111pt.jpg",4,3,1,1,0,1800,29294,3,1,1.5,1,0.52
1,7,1,0,98,1,"11110pt.jpg",4,1,1,1,0,1800,29623,3,1,1.5,1,0.68
1,7,1,0,99,1,"01000pt.jpg",1,2,0,0,0,1800,19107,3,1,1.5,1,0.52
1,7,1,0,100,1,"00101pt.jpg",1,4,0,0,0,1800,35436,3,1,1.5,1,0.68
1,7,1,0,101,1,"11011pt.jpg",2,1,0,1,0,1800,5770,3,1,1.5,1,0.68
1,7,1,0,102,1,"10101pt.jpg",3,1,1,0,0,1800,13112,3,1,1.5,1,0.6
1,7,1,0,103,1,"00111pt.jpg",2,2,0,1,1,1800,22928,3,1,1.5,1,0.68
1,7,1,0,104,1,"01010pt.jpg",2,2,0,1,1,1800,34321,3,1,1.5,1,0.76
1,8,1,1,1,0,"00010.jpg",2,3,0,1,0,-100,39472,1.5,1.5,1.5,1,0.28
1,8,1,1,2,0,"01011.jpg",2,2,0,1,1,0,21032,1.5,1.5,1.5,1,0.24
1,8,1,1,3,0,"01001.jpg",1,1,0,0,1,100,7775,1.5,1.5,1.5,1,0.68
1,8,1,1,4,0,"11101.jpg",3,4,1,0,0,0,13896,1.5,1.5,1.5,1,0.48
1,8,1,1,5,0,"11110.jpg",4,4,1,1,1,100,11109,1.5,1.5,1.5,1,0.32
1,8,1,1,6,0,"01101.jpg",1,2,0,0,0,0,15418,1.5,1.5,1.5,1,0.56
1,8,1,1,7,0,"01000.jpg",1,1,0,0,1,100,7034,1.5,1.5,1.5,1,0.64
1,8,1,1,8,0,"10011.jpg",2,4,0,1,0,0,16850,1.5,1.5,1.5,1,0.68
1,8,1,1,9,0,"10100.jpg",3,1,1,0,0,-100,36760,1.5,1.5,1.5,1,0.64
1,8,1,1,10,0,"01010.jpg",2,2,0,1,1,0,10291,1.5,1.5,1.5,1,0.56
1,8,1,1,11,0,"11001.jpg",1,1,0,0,1,100,10985,1.5,1.5,1.5,1,0.72
1,8,1,1,12,0,"00101.jpg",1,2,0,0,0,0,17762,1.5,1.5,1.5,1,0.72
1,8,1,1,13,0,"10010.jpg",2,4,0,1,0,-100,10005,1.5,1.5,1.5,1,0.8
1,8,1,1,14,0,"11001.jpg",1,1,0,0,1,0,6572,1.5,1.5,1.5,1,0.6
1,8,1,1,15,0,"11001.jpg",1,1,0,0,1,100,7511,1.5,1.5,1.5,1,0.64
1,8,1,1,16,0,"11010.jpg",2,2,0,1,1,200,6676,1.5,1.5,1.5,1,0.68
1,8,1,1,17,0,"10010.jpg",2,2,0,1,1,300,5354,1.5,1.5,1.5,1,0.76
1,8,1,1,18,0,"00000.jpg",1,3,0,0,0,200,12221,1.5,1.5,1.5,1,0.6
1,8,1,1,19,0,"11010.jpg",2,2,0,1,1,300,5509,1.5,1.5,1.5,1,0.72
1,8,1,1,20,0,"00011.jpg",2,2,0,1,1,400,6696,1.5,1.5,1.5,1,0.56
1,8,1,1,21,0,"10111.jpg",4,4,1,1,1,500,7463,1.5,1.5,1.5,1,0.56
1,8,1,1,22,0,"11100.jpg",3,3,1,0,1,600,6058,1.5,1.5,1.5,1,0.68
1,8,1,1,23,0,"11100.jpg",3,3,1,0,1,700,2355,1.5,1.5,1.5,1,0.76
1,8,1,1,24,0,"00100.jpg",1,3,0,0,0,600,4852,1.5,1.5,1.5,1,0.6
1,8,1,1,25,0,"00110.jpg",2,3,0,1,0,500,29692,1.5,1.5,1.5,1,0.72
1,8,1,1,26,0,"00100.jpg",1,1,0,0,1,600,24465,1.5,1.5,1.5,1,0.64
1,8,1,1,27,0,"01111.jpg",2,4,0,1,0,500,12295,1.5,1.5,1.5,1,0.72
1,8,1,1,28,0,"01110.jpg",2,2,0,1,1,600,6204,1.5,1.5,1.5,1,0.6
1,8,1,1,29,0,"01100.jpg",1,1,0,0,1,700,6886,1.5,1.5,1.5,1,0.8
1,8,1,1,30,0,"00100.jpg",1,1,0,0,1,800,9122,1.5,1.5,1.5,1,0.72
1,8,1,1,31,0,"10000.jpg",1,3,0,0,0,700,5359,1.5,1.5,1.5,1,0.64
1,8,1,1,32,0,"10101.jpg",3,1,1,0,0,600,15073,1.5,1.5,1.5,1,0.64
1,8,1,2,33,0,"01011.jpg",2,2,0,1,1,700,4191,1.5,1.5,1.5,1,0.68
1,8,1,2,34,0,"00001.jpg",1,1,0,0,1,800,4984,1.5,1.5,1.5,1,0.76
1,8,1,2,35,0,"11101.jpg",3,3,1,0,1,900,14538,1.5,1.5,1.5,1,0.8
1,8,1,2,36,0,"10100.jpg",3,3,1,0,1,1000,28302,1.5,1.5,1.5,1,0.84
1,8,1,2,37,0,"11111.jpg",4,4,1,1,1,1100,7188,1.5,1.5,1.5,1,0.8
1,8,1,2,38,0,"00101.jpg",1,1,0,0,1,1200,6229,1.5,1.5,1.5,1,0.76
1,8,1,2,39,0,"00111.jpg",2,2,0,1,1,1300,5004,1.5,1.5,1.5,1,0.72
1,8,1,2,40,0,"00111.jpg",2,2,0,1,1,1400,5526,1.5,1.5,1.5,1,0.92
1,8,1,2,41,0,"10110.jpg",4,4,1,1,1,1500,8681,1.5,1.5,1.5,1,0.84
1,8,1,2,42,0,"00000.jpg",1,1,0,0,1,1600,7453,1.5,1.5,1.5,1,0.84
1,8,1,2,43,0,"11110.jpg",4,3,1,1,0,1500,14365,1.5,1.5,1.5,1,0.76
1,8,1,2,44,0,"01001.jpg",1,1,0,0,1,1600,3871,1.5,1.5,1.5,1,0.84
1,8,1,2,45,0,"10100.jpg",3,3,1,0,1,1700,6492,1.5,1.5,1.5,1,0.72
1,8,1,2,46,0,"10001.jpg",1,1,0,0,1,1800,11771,1.5,1.5,1.5,1,0.88
1,8,1,2,47,0,"00001.jpg",1,1,0,0,1,1900,2045,1.5,1.5,1.5,1,0.8
1,8,1,2,48,0,"00110.jpg",2,2,0,1,1,2000,22308,1.5,1.5,1.5,1,0.88
1,8,1,2,49,0,"11111.jpg",4,4,1,1,1,2100,5753,1.5,1.5,1.5,1,0.92
1,8,1,2,50,0,"00011.jpg",2,2,0,1,1,2200,4603,1.5,1.5,1.5,1,0.88
1,8,1,2,51,0,"01111.jpg",2,2,0,1,1,2300,5010,1.5,1.5,1.5,1,0.8
1,8,1,2,52,0,"01101.jpg",1,1,0,0,1,2400,5581,1.5,1.5,1.5,1,0.76
1,8,1,2,53,0,"10111.jpg",4,4,1,1,1,2500,7285,1.5,1.5,1.5,1,0.84
1,8,1,2,54,0,"11100.jpg",3,1,1,0,0,2400,13154,1.5,1.5,1.5,1,0.88
1,8,1,2,55,0,"00111.jpg",2,2,0,1,1,2500,5366,1.5,1.5,1.5,1,0.88
1,8,1,2,56,0,"10101.jpg",3,1,1,0,0,2400,4975,1.5,1.5,1.5,1,0.8
1,8,1,2,57,0,"01110.jpg",2,2,0,1,1,2500,16609,1.5,1.5,1.5,1,0.8
1,8,1,2,58,0,"10011.jpg",2,4,0,1,0,2400,8209,1.5,1.5,1.5,1,0.8
1,8,1,2,59,0,"01011.jpg",2,2,0,1,1,2500,2002,1.5,1.5,1.5,1,0.88
1,8,1,2,60,0,"11111.jpg",4,2,1,1,0,2400,4866,1.5,1.5,1.5,1,0.68
1,8,1,2,61,0,"00011.jpg",2,2,0,1,1,2500,2368,1.5,1.5,1.5,1,0.92
1,8,1,2,62,0,"11101.jpg",3,1,1,0,0,2400,20402,1.5,1.5,1.5,1,0.76
1,8,1,2,63,0,"11000.jpg",1,1,0,0,1,2500,4778,1.5,1.5,1.5,1,0.96
1,8,1,2,64,0,"00110.jpg",2,2,0,1,1,2600,10477,1.5,1.5,1.5,1,0.88
1,8,1,3,65,0,"00010.jpg",2,2,0,1,1,2700,4002,1.5,1.5,1.5,1,0.92
1,8,1,3,66,0,"01101.jpg",1,3,0,0,0,2600,6284,1.5,1.5,1.5,1,0.88
1,8,1,3,67,0,"11000.jpg",1,1,0,0,1,2700,9664,1.5,1.5,1.5,1,0.88
1,8,1,3,68,0,"10101.jpg",3,3,1,0,1,2800,12391,1.5,1.5,1.5,1,0.84
1,8,1,3,69,0,"11110.jpg",4,2,1,1,0,2700,11848,1.5,1.5,1.5,1,0.84
1,8,1,3,70,0,"01001.jpg",1,1,0,0,1,2800,2959,1.5,1.5,1.5,1,0.88
1,8,1,3,71,0,"10111.jpg",4,4,1,1,1,2900,5209,1.5,1.5,1.5,1,0.84
1,8,1,3,72,0,"10110.jpg",4,4,1,1,1,3000,5153,1.5,1.5,1.5,1,0.84
1,8,1,3,73,0,"11011.jpg",2,2,0,1,1,3100,3779,1.5,1.5,1.5,1,0.88
1,8,1,3,74,0,"00101.jpg",1,3,0,0,0,3000,7197,1.5,1.5,1.5,1,0.92
1,8,1,3,75,0,"00001.jpg",1,1,0,0,1,3100,14590,1.5,1.5,1.5,1,0.96
1,8,1,3,76,0,"01000.jpg",1,1,0,0,1,3200,2719,1.5,1.5,1.5,1,0.88
1,8,1,3,77,0,"11011.jpg",2,2,0,1,1,3300,3139,1.5,1.5,1.5,1,0.88
1,8,1,3,78,0,"01110.jpg",2,2,0,1,1,3400,3454,1.5,1.5,1.5,1,0.88
1,8,1,3,79,0,"10010.jpg",2,4,0,1,0,3300,4332,1.5,1.5,1.5,1,0.88
1,8,1,3,80,0,"10110.jpg",4,4,1,1,1,3400,11864,1.5,1.5,1.5,1,0.96
1,8,1,3,81,0,"10001.jpg",1,3,0,0,0,3300,6862,1.5,1.5,1.5,1,0.76
1,8,1,3,82,0,"10000.jpg",1,1,0,0,1,3400,3995,1.5,1.5,1.5,1,0.96
1,8,1,3,83,0,"01000.jpg",1,1,0,0,1,3500,1749,1.5,1.5,1.5,1,0.96
1,8,1,3,84,0,"10001.jpg",1,1,0,0,1,3600,6872,1.5,1.5,1.5,1,0.88
1,8,1,3,85,0,"10000.jpg",1,1,0,0,1,3700,5286,1.5,1.5,1.5,1,0.84
1,8,1,3,86,0,"11000.jpg",1,1,0,0,1,3800,3277,1.5,1.5,1.5,1,0.96
1,8,1,3,87,0,"11011.jpg",2,2,0,1,1,3900,2539,1.5,1.5,1.5,1,0.92
1,8,1,3,88,0,"00010.jpg",2,2,0,1,1,4000,2448,1.5,1.5,1.5,1,1
1,8,1,3,89,0,"01100.jpg",1,1,0,0,1,4100,4389,1.5,1.5,1.5,1,0.88
1,8,1,3,90,0,"00000.jpg",1,1,0,0,1,4200,3071,1.5,1.5,1.5,1,0.92
1,8,1,3,91,0,"01111.jpg",2,2,0,1,1,4300,5813,1.5,1.5,1.5,1,0.84
1,8,1,3,92,0,"01010.jpg",2,2,0,1,1,4400,1958,1.5,1.5,1.5,1,0.92
1,8,1,3,93,0,"11010.jpg",2,4,0,1,0,4300,11161,1.5,1.5,1.5,1,0.84
1,8,1,3,94,0,"10011.jpg",2,4,0,1,0,4200,10212,1.5,1.5,1.5,1,0.92
1,8,1,3,95,0,"01100.jpg",1,1,0,0,1,4300,2715,1.5,1.5,1.5,1,0.92
1,8,1,3,96,0,"01010.jpg",2,2,0,1,1,4400,4289,1.5,1.5,1.5,1,0.92
1,8,1,0,97,1,"00101pt.jpg",1,1,0,0,1,4400,16179,1.5,1.5,1.5,1,0.52
1,8,1,0,98,1,"00111pt.jpg",2,2,0,1,1,4400,20626,1.5,1.5,1.5,1,0.68
1,8,1,0,99,1,"01010pt.jpg",2,3,0,1,0,4400,5584,1.5,1.5,1.5,1,0.52
1,8,1,0,100,1,"11110pt.jpg",4,3,1,1,0,4400,12918,1.5,1.5,1.5,1,0.68
1,8,1,0,101,1,"10101pt.jpg",3,1,1,0,0,4400,18600,1.5,1.5,1.5,1,0.68
1,8,1,0,102,1,"11111pt.jpg",4,2,1,1,0,4400,16990,1.5,1.5,1.5,1,0.6
1,8,1,0,103,1,"01000pt.jpg",1,1,0,0,1,4400,5244,1.5,1.5,1.5,1,0.68
1,8,1,0,104,1,"11011pt.jpg",2,4,0,1,0,4400,13377,1.5,1.5,1.5,1,0.76
1,9,1,1,1,0,"10111.jpg",4,3,1,1,0,-100,21396,4,3,3,1.5,0.28
1,9,1,1,2,0,"00000.jpg",1,4,0,0,0,-200,24180,4,3,3,1.5,0.24
1,9,1,1,3,0,"00000.jpg",1,1,0,0,1,-100,8525,4,3,3,1.5,0.68
1,9,1,1,4,0,"01110.jpg",2,2,0,1,1,0,13608,4,3,3,1.5,0.48
1,9,1,1,5,0,"11000.jpg",1,3,0,0,0,-100,11761,4,3,3,1.5,0.32
1,9,1,1,6,0,"00010.jpg",2,2,0,1,1,0,14714,4,3,3,1.5,0.56
1,9,1,1,7,0,"11011.jpg",2,4,0,1,0,-100,10173,4,3,3,1.5,0.64
1,9,1,1,8,0,"10011.jpg",2,2,0,1,1,0,1680,4,3,3,1.5,0.68
1,9,1,1,9,0,"10110.jpg",4,2,1,1,0,-100,1742,4,3,3,1.5,0.64
1,9,1,1,10,0,"01000.jpg",1,1,0,0,1,0,19391,4,3,3,1.5,0.56
1,9,1,1,11,0,"10010.jpg",2,2,0,1,1,100,3800,4,3,3,1.5,0.72
1,9,1,1,12,0,"11111.jpg",4,4,1,1,1,200,6209,4,3,3,1.5,0.72
1,9,1,1,13,0,"10101.jpg",3,3,1,0,1,300,3057,4,3,3,1.5,0.8
1,9,1,1,14,0,"10100.jpg",3,1,1,0,0,200,6999,4,3,3,1.5,0.6
1,9,1,1,15,0,"00110.jpg",2,4,0,1,0,100,5528,4,3,3,1.5,0.64
1,9,1,1,16,0,"10110.jpg",4,4,1,1,1,200,19596,4,3,3,1.5,0.68
1,9,1,1,17,0,"01000.jpg",1,1,0,0,1,300,4740,4,3,3,1.5,0.76
1,9,1,1,18,0,"10000.jpg",1,3,0,0,0,200,7528,4,3,3,1.5,0.6
1,9,1,1,19,0,"00001.jpg",1,3,0,0,0,100,17107,4,3,3,1.5,0.72
1,9,1,1,20,0,"01100.jpg",1,3,0,0,0,0,7455,4,3,3,1.5,0.56
1,9,1,1,21,0,"01111.jpg",2,4,0,1,0,-100,7050,4,3,3,1.5,0.56
1,9,1,1,22,0,"10101.jpg",3,3,1,0,1,0,7476,4,3,3,1.5,0.68
1,9,1,1,23,0,"10011.jpg",2,2,0,1,1,100,7458,4,3,3,1.5,0.76
1,9,1,1,24,0,"11001.jpg",1,1,0,0,1,200,4640,4,3,3,1.5,0.6
1,9,1,1,25,0,"00001.jpg",1,1,0,0,1,300,5056,4,3,3,1.5,0.72
1,9,1,1,26,0,"11000.jpg",1,1,0,0,1,400,25366,4,3,3,1.5,0.64
1,9,1,1,27,0,"00010.jpg",2,2,0,1,1,500,5410,4,3,3,1.5,0.72
1,9,1,1,28,0,"11010.jpg",2,2,0,1,1,600,7330,4,3,3,1.5,0.6
1,9,1,1,29,0,"01000.jpg",1,1,0,0,1,700,2982,4,3,3,1.5,0.8
1,9,1,1,30,0,"00101.jpg",1,3,0,0,0,600,16663,4,3,3,1.5,0.72
1,9,1,1,31,0,"01001.jpg",1,1,0,0,1,700,5453,4,3,3,1.5,0.64
1,9,1,1,32,0,"11101.jpg",3,1,1,0,0,600,1821,4,3,3,1.5,0.64
1,9,1,2,33,0,"10100.jpg",3,3,1,0,1,700,11442,4,3,3,1.5,0.68
1,9,1,2,34,0,"00010.jpg",2,2,0,1,1,800,2939,4,3,3,1.5,0.76
1,9,1,2,35,0,"01101.jpg",1,1,0,0,1,900,7678,4,3,3,1.5,0.8
1,9,1,2,36,0,"00101.jpg",1,1,0,0,1,1000,1293,4,3,3,1.5,0.84
1,9,1,2,37,0,"11111.jpg",4,4,1,1,1,1100,11906,4,3,3,1.5,0.8
1,9,1,2,38,0,"10001.jpg",1,1,0,0,1,1200,3581,4,3,3,1.5,0.76
1,9,1,2,39,0,"00110.jpg",2,2,0,1,1,1300,3544,4,3,3,1.5,0.72
1,9,1,2,40,0,"00100.jpg",1,1,0,0,1,1400,5235,4,3,3,1.5,0.92
1,9,1,2,41,0,"00100.jpg",1,1,0,0,1,1500,2130,4,3,3,1.5,0.84
1,9,1,2,42,0,"01101.jpg",1,1,0,0,1,1600,6126,4,3,3,1.5,0.84
1,9,1,2,43,0,"00011.jpg",2,2,0,1,1,1700,2602,4,3,3,1.5,0.76
1,9,1,2,44,0,"00001.jpg",1,1,0,0,1,1800,2011,4,3,3,1.5,0.84
1,9,1,2,45,0,"01110.jpg",2,2,0,1,1,1900,3532,4,3,3,1.5,0.72
1,9,1,2,46,0,"10101.jpg",3,3,1,0,1,2000,3822,4,3,3,1.5,0.88
1,9,1,2,47,0,"01010.jpg",2,2,0,1,1,2100,1646,4,3,3,1.5,0.8
1,9,1,2,48,0,"01011.jpg",2,2,0,1,1,2200,2501,4,3,3,1.5,0.88
1,9,1,2,49,0,"10010.jpg",2,2,0,1,1,2300,1138,4,3,3,1.5,0.92
1,9,1,2,50,0,"11111.jpg",4,4,1,1,1,2400,7078,4,3,3,1.5,0.88
1,9,1,2,51,0,"01111.jpg",2,2,0,1,1,2500,3466,4,3,3,1.5,0.8
1,9,1,2,52,0,"10111.jpg",4,4,1,1,1,2600,1816,4,3,3,1.5,0.76
1,9,1,2,53,0,"00111.jpg",2,2,0,1,1,2700,1352,4,3,3,1.5,0.84
1,9,1,2,54,0,"00000.jpg",1,1,0,0,1,2800,4513,4,3,3,1.5,0.88
1,9,1,2,55,0,"01101.jpg",1,1,0,0,1,2900,2070,4,3,3,1.5,0.88
1,9,1,2,56,0,"11100.jpg",3,3,1,0,1,3000,5774,4,3,3,1.5,0.8
1,9,1,2,57,0,"10111.jpg",4,4,1,1,1,3100,5175,4,3,3,1.5,0.8
1,9,1,2,58,0,"11100.jpg",3,3,1,0,1,3200,2184,4,3,3,1.5,0.8
1,9,1,2,59,0,"00111.jpg",2,2,0,1,1,3300,4201,4,3,3,1.5,0.88
1,9,1,2,60,0,"00100.jpg",1,1,0,0,1,3400,1363,4,3,3,1.5,0.68
1,9,1,2,61,0,"01001.jpg",1,1,0,0,1,3500,2381,4,3,3,1.5,0.92
1,9,1,2,62,0,"10001.jpg",1,1,0,0,1,3600,6055,4,3,3,1.5,0.76
1,9,1,2,63,0,"01100.jpg",1,1,0,0,1,3700,1846,4,3,3,1.5,0.96
1,9,1,2,64,0,"10100.jpg",3,3,1,0,1,3800,11028,4,3,3,1.5,0.88
1,9,1,3,65,0,"11110.jpg",4,4,1,1,1,3900,6908,4,3,3,1.5,0.92
1,9,1,3,66,0,"00011.jpg",2,2,0,1,1,4000,2832,4,3,3,1.5,0.88
1,9,1,3,67,0,"10011.jpg",2,4,0,1,0,3900,6128,4,3,3,1.5,0.88
1,9,1,3,68,0,"10000.jpg",1,3,0,0,0,3800,4369,4,3,3,1.5,0.84
1,9,1,3,69,0,"01011.jpg",2,2,0,1,1,3900,2596,4,3,3,1.5,0.84
1,9,1,3,70,0,"01010.jpg",2,2,0,1,1,4000,1500,4,3,3,1.5,0.88
1,9,1,3,71,0,"01010.jpg",2,2,0,1,1,4100,1752,4,3,3,1.5,0.84
1,9,1,3,72,0,"10001.jpg",1,3,0,0,0,4000,6196,4,3,3,1.5,0.84
1,9,1,3,73,0,"11001.jpg",1,1,0,0,1,4100,2003,4,3,3,1.5,0.88
1,9,1,3,74,0,"00111.jpg",2,2,0,1,1,4200,3076,4,3,3,1.5,0.92
1,9,1,3,75,0,"01001.jpg",1,1,0,0,1,4300,2091,4,3,3,1.5,0.96
1,9,1,3,76,0,"00011.jpg",2,2,0,1,1,4400,2088,4,3,3,1.5,0.88
1,9,1,3,77,0,"11010.jpg",2,4,0,1,0,4300,16933,4,3,3,1.5,0.88
1,9,1,3,78,0,"11110.jpg",4,4,1,1,1,4400,3626,4,3,3,1.5,0.88
1,9,1,3,79,0,"11101.jpg",3,3,1,0,1,4500,4535,4,3,3,1.5,0.88
1,9,1,3,80,0,"11010.jpg",2,2,0,1,1,4600,4483,4,3,3,1.5,0.96
1,9,1,3,81,0,"10110.jpg",4,4,1,1,1,4700,2760,4,3,3,1.5,0.76
1,9,1,3,82,0,"01011.jpg",2,2,0,1,1,4800,1794,4,3,3,1.5,0.96
1,9,1,3,83,0,"11000.jpg",1,1,0,0,1,4900,6395,4,3,3,1.5,0.96
1,9,1,3,84,0,"10000.jpg",1,1,0,0,1,5000,4388,4,3,3,1.5,0.88
1,9,1,3,85,0,"00110.jpg",2,2,0,1,1,5100,6070,4,3,3,1.5,0.84
1,9,1,3,86,0,"11001.jpg",1,1,0,0,1,5200,2908,4,3,3,1.5,0.96
1,9,1,3,87,0,"11011.jpg",2,2,0,1,1,5300,10137,4,3,3,1.5,0.92
1,9,1,3,88,0,"01100.jpg",1,1,0,0,1,5400,3675,4,3,3,1.5,1
1,9,1,3,89,0,"01111.jpg",2,2,0,1,1,5500,4818,4,3,3,1.5,0.88
1,9,1,3,90,0,"11011.jpg",2,2,0,1,1,5600,8280,4,3,3,1.5,0.92
1,9,1,3,91,0,"11101.jpg",3,3,1,0,1,5700,7468,4,3,3,1.5,0.84
1,9,1,3,92,0,"10010.jpg",2,4,0,1,0,5600,7669,4,3,3,1.5,0.92
1,9,1,3,93,0,"11110.jpg",4,4,1,1,1,5700,2482,4,3,3,1.5,0.84
1,9,1,3,94,0,"01110.jpg",2,2,0,1,1,5800,3735,4,3,3,1.5,0.92
1,9,1,3,95,0,"00101.jpg",1,1,0,0,1,5900,2346,4,3,3,1.5,0.92
1,9,1,3,96,0,"11100.jpg",3,3,1,0,1,6000,4686,4,3,3,1.5,0.92
1,9,1,0,97,1,"11011pt.jpg",2,2,0,1,1,6000,12766,4,3,3,1.5,0.52
1,9,1,0,98,1,"11110pt.jpg",4,4,1,1,1,6000,4270,4,3,3,1.5,0.68
1,9,1,0,99,1,"10101pt.jpg",3,3,1,0,1,6000,12167,4,3,3,1.5,0.52
1,9,1,0,100,1,"00101pt.jpg",1,1,0,0,1,6000,13783,4,3,3,1.5,0.68
1,9,1,0,101,1,"11111pt.jpg",4,4,1,1,1,6000,4845,4,3,3,1.5,0.68
1,9,1,0,102,1,"01010pt.jpg",2,2,0,1,1,6000,4818,4,3,3,1.5,0.6
1,9,1,0,103,1,"01000pt.jpg",1,1,0,0,1,6000,3072,4,3,3,1.5,0.68
1,9,1,0,104,1,"00111pt.jpg",2,2,0,1,1,6000,7634,4,3,3,1.5,0.76
1,10,1,1,1,0,"10111.jpg",4,3,1,1,0,-100,13120,1.5,2.5,2.5,2,0.28
1,10,1,1,2,0,"11001.jpg",1,3,0,0,0,-200,6235,1.5,2.5,2.5,2,0.24
1,10,1,1,3,0,"00101.jpg",1,1,0,0,1,-100,5129,1.5,2.5,2.5,2,0.68
1,10,1,1,4,0,"11111.jpg",4,4,1,1,1,0,3350,1.5,2.5,2.5,2,0.48
1,10,1,1,5,0,"00110.jpg",2,4,0,1,0,-100,6839,1.5,2.5,2.5,2,0.32
1,10,1,1,6,0,"11110.jpg",4,4,1,1,1,0,4487,1.5,2.5,2.5,2,0.56
1,10,1,1,7,0,"11100.jpg",3,3,1,0,1,100,5107,1.5,2.5,2.5,2,0.64
1,10,1,1,8,0,"00111.jpg",2,2,0,1,1,200,10216,1.5,2.5,2.5,2,0.68
1,10,1,1,9,0,"10111.jpg",4,4,1,1,1,300,3602,1.5,2.5,2.5,2,0.64
1,10,1,1,10,0,"10000.jpg",1,3,0,0,0,200,2641,1.5,2.5,2.5,2,0.56
1,10,1,1,11,0,"00111.jpg",2,2,0,1,1,300,5215,1.5,2.5,2.5,2,0.72
1,10,1,1,12,0,"11101.jpg",3,3,1,0,1,400,9951,1.5,2.5,2.5,2,0.72
1,10,1,1,13,0,"00110.jpg",2,2,0,1,1,500,10675,1.5,2.5,2.5,2,0.8
1,10,1,1,14,0,"10100.jpg",3,1,1,0,0,400,4385,1.5,2.5,2.5,2,0.6
1,10,1,1,15,0,"10110.jpg",4,3,1,1,0,300,2178,1.5,2.5,2.5,2,0.64
1,10,1,1,16,0,"00001.jpg",1,2,0,0,0,200,4234,1.5,2.5,2.5,2,0.68
1,10,1,1,17,0,"10000.jpg",1,1,0,0,1,300,13330,1.5,2.5,2.5,2,0.76
1,10,1,1,18,0,"10010.jpg",2,3,0,1,0,200,11774,1.5,2.5,2.5,2,0.6
1,10,1,1,19,0,"11111.jpg",4,4,1,1,1,300,5735,1.5,2.5,2.5,2,0.72
1,10,1,1,20,0,"00010.jpg",2,3,0,1,0,200,3594,1.5,2.5,2.5,2,0.56
1,10,1,1,21,0,"01010.jpg",2,2,0,1,1,300,1955,1.5,2.5,2.5,2,0.56
1,10,1,1,22,0,"11101.jpg",3,3,1,0,1,400,3989,1.5,2.5,2.5,2,0.68
1,10,1,1,23,0,"11110.jpg",4,4,1,1,1,500,3175,1.5,2.5,2.5,2,0.76
1,10,1,1,24,0,"11000.jpg",1,1,0,0,1,600,13975,1.5,2.5,2.5,2,0.6
1,10,1,1,25,0,"11100.jpg",3,3,1,0,1,700,5609,1.5,2.5,2.5,2,0.72
1,10,1,1,26,0,"01100.jpg",1,1,0,0,1,800,4730,1.5,2.5,2.5,2,0.64
1,10,1,1,27,0,"11001.jpg",1,3,0,0,0,700,4046,1.5,2.5,2.5,2,0.72
1,10,1,1,28,0,"00100.jpg",1,1,0,0,1,800,1709,1.5,2.5,2.5,2,0.6
1,10,1,1,29,0,"00100.jpg",1,2,0,0,0,700,7017,1.5,2.5,2.5,2,0.8
1,10,1,1,30,0,"10001.jpg",1,3,0,0,0,600,5746,1.5,2.5,2.5,2,0.72
1,10,1,1,31,0,"10101.jpg",3,1,1,0,0,500,1348,1.5,2.5,2.5,2,0.64
1,10,1,1,32,0,"01111.jpg",2,2,0,1,1,600,4991,1.5,2.5,2.5,2,0.64
1,10,1,2,33,0,"11010.jpg",2,3,0,1,0,500,8136,1.5,2.5,2.5,2,0.68
1,10,1,2,34,0,"01110.jpg",2,2,0,1,1,600,9788,1.5,2.5,2.5,2,0.76
1,10,1,2,35,0,"11011.jpg",2,1,0,1,0,500,5476,1.5,2.5,2.5,2,0.8
1,10,1,2,36,0,"01010.jpg",2,1,0,1,0,400,15986,1.5,2.5,2.5,2,0.84
1,10,1,2,37,0,"11111.jpg",4,4,1,1,1,500,2876,1.5,2.5,2.5,2,0.8
1,10,1,2,38,0,"01100.jpg",1,2,0,0,0,400,11761,1.5,2.5,2.5,2,0.76
1,10,1,2,39,0,"10100.jpg",3,2,1,0,0,300,7234,1.5,2.5,2.5,2,0.72
1,10,1,2,40,0,"11010.jpg",2,2,0,1,1,400,5145,1.5,2.5,2.5,2,0.92
1,10,1,2,41,0,"01111.jpg",2,1,0,1,0,300,2717,1.5,2.5,2.5,2,0.84
1,10,1,2,42,0,"00110.jpg",2,2,0,1,1,400,7265,1.5,2.5,2.5,2,0.84
1,10,1,2,43,0,"00000.jpg",1,2,0,0,0,300,10215,1.5,2.5,2.5,2,0.76
1,10,1,2,44,0,"10001.jpg",1,2,0,0,0,200,3326,1.5,2.5,2.5,2,0.84
1,10,1,2,45,0,"00011.jpg",2,2,0,1,1,300,8738,1.5,2.5,2.5,2,0.72
1,10,1,2,46,0,"10011.jpg",2,2,0,1,1,400,6333,1.5,2.5,2.5,2,0.88
1,10,1,2,47,0,"00010.jpg",2,1,0,1,0,300,2337,1.5,2.5,2.5,2,0.8
1,10,1,2,48,0,"11110.jpg",4,4,1,1,1,400,4820,1.5,2.5,2.5,2,0.88
1,10,1,2,49,0,"11101.jpg",3,2,1,0,0,300,15684,1.5,2.5,2.5,2,0.92
1,10,1,2,50,0,"00000.jpg",1,1,0,0,1,400,5921,1.5,2.5,2.5,2,0.88
1,10,1,2,51,0,"10101.jpg",3,3,1,0,1,500,1949,1.5,2.5,2.5,2,0.8
1,10,1,2,52,0,"01010.jpg",2,2,0,1,1,600,4775,1.5,2.5,2.5,2,0.76
1,10,1,2,53,0,"10100.jpg",3,3,1,0,1,700,970,1.5,2.5,2.5,2,0.84
1,10,1,2,54,0,"10111.jpg",4,4,1,1,1,800,2500,1.5,2.5,2.5,2,0.88
1,10,1,2,55,0,"10010.jpg",2,2,0,1,1,900,5649,1.5,2.5,2.5,2,0.88
1,10,1,2,56,0,"00101.jpg",1,1,0,0,1,1000,4998,1.5,2.5,2.5,2,0.8
1,10,1,2,57,0,"11010.jpg",2,1,0,1,0,900,15855,1.5,2.5,2.5,2,0.8
1,10,1,2,58,0,"11011.jpg",2,2,0,1,1,1000,974,1.5,2.5,2.5,2,0.8
1,10,1,2,59,0,"01001.jpg",1,1,0,0,1,1100,1383,1.5,2.5,2.5,2,0.88
1,10,1,2,60,0,"00101.jpg",1,3,0,0,0,1000,970,1.5,2.5,2.5,2,0.68
1,10,1,2,61,0,"01011.jpg",2,1,0,1,0,900,6971,1.5,2.5,2.5,2,0.92
1,10,1,2,62,0,"01101.jpg",1,1,0,0,1,1000,2141,1.5,2.5,2.5,2,0.76
1,10,1,2,63,0,"01101.jpg",1,1,0,0,1,1100,2521,1.5,2.5,2.5,2,0.96
1,10,1,2,64,0,"00111.jpg",2,4,0,1,0,1000,2516,1.5,2.5,2.5,2,0.88
1,10,1,3,65,0,"00011.jpg",2,2,0,1,1,1100,3048,1.5,2.5,2.5,2,0.92
1,10,1,3,66,0,"11001.jpg",1,1,0,0,1,1200,1247,1.5,2.5,2.5,2,0.88
1,10,1,3,67,0,"00001.jpg",1,1,0,0,1,1300,11727,1.5,2.5,2.5,2,0.88
1,10,1,3,68,0,"11000.jpg",1,1,0,0,1,1400,7411,1.5,2.5,2.5,2,0.84
1,10,1,3,69,0,"00010.jpg",2,2,0,1,1,1500,1971,1.5,2.5,2.5,2,0.84
1,10,1,3,70,0,"01100.jpg",1,3,0,0,0,1400,932,1.5,2.5,2.5,2,0.88
1,10,1,3,71,0,"01110.jpg",2,1,0,1,0,1300,2400,1.5,2.5,2.5,2,0.84
1,10,1,3,72,0,"10010.jpg",2,4,0,1,0,1200,2313,1.5,2.5,2.5,2,0.84
1,10,1,3,73,0,"01110.jpg",2,2,0,1,1,1300,1100,1.5,2.5,2.5,2,0.88
1,10,1,3,74,0,"10011.jpg",2,2,0,1,1,1400,4545,1.5,2.5,2.5,2,0.92
1,10,1,3,75,0,"00001.jpg",1,1,0,0,1,1500,2795,1.5,2.5,2.5,2,0.96
1,10,1,3,76,0,"10110.jpg",4,4,1,1,1,1600,2773,1.5,2.5,2.5,2,0.88
1,10,1,3,77,0,"10000.jpg",1,1,0,0,1,1700,4983,1.5,2.5,2.5,2,0.88
1,10,1,3,78,0,"01011.jpg",2,2,0,1,1,1800,3447,1.5,2.5,2.5,2,0.88
1,10,1,3,79,0,"01000.jpg",1,1,0,0,1,1900,3703,1.5,2.5,2.5,2,0.88
1,10,1,3,80,0,"00100.jpg",1,1,0,0,1,2000,4251,1.5,2.5,2.5,2,0.96
1,10,1,3,81,0,"01000.jpg",1,2,0,0,0,1900,2771,1.5,2.5,2.5,2,0.76
1,10,1,3,82,0,"10001.jpg",1,1,0,0,1,2000,4180,1.5,2.5,2.5,2,0.96
1,10,1,3,83,0,"11100.jpg",3,3,1,0,1,2100,2622,1.5,2.5,2.5,2,0.96
1,10,1,3,84,0,"10101.jpg",3,3,1,0,1,2200,735,1.5,2.5,2.5,2,0.88
1,10,1,3,85,0,"01001.jpg",1,1,0,0,1,2300,7019,1.5,2.5,2.5,2,0.84
1,10,1,3,86,0,"01000.jpg",1,1,0,0,1,2400,859,1.5,2.5,2.5,2,0.96
1,10,1,3,87,0,"01001.jpg",1,1,0,0,1,2500,625,1.5,2.5,2.5,2,0.92
1,10,1,3,88,0,"11000.jpg",1,1,0,0,1,2600,3617,1.5,2.5,2.5,2,1
1,10,1,3,89,0,"10110.jpg",4,4,1,1,1,2700,2882,1.5,2.5,2.5,2,0.88
1,10,1,3,90,0,"10011.jpg",2,2,0,1,1,2800,2126,1.5,2.5,2.5,2,0.92
1,10,1,3,91,0,"00000.jpg",1,1,0,0,1,2900,1195,1.5,2.5,2.5,2,0.84
1,10,1,3,92,0,"01011.jpg",2,2,0,1,1,3000,1772,1.5,2.5,2.5,2,0.92
1,10,1,3,93,0,"01111.jpg",2,1,0,1,0,2900,6510,1.5,2.5,2.5,2,0.84
1,10,1,3,94,0,"01101.jpg",1,3,0,0,0,2800,1298,1.5,2.5,2.5,2,0.92
1,10,1,3,95,0,"11011.jpg",2,2,0,1,1,2900,4382,1.5,2.5,2.5,2,0.92
1,10,1,3,96,0,"00011.jpg",2,2,0,1,1,3000,1241,1.5,2.5,2.5,2,0.92
1,10,1,0,97,1,"10101pt.jpg",3,3,1,0,1,3000,7200,1.5,2.5,2.5,2,0.52
1,10,1,0,98,1,"01000pt.jpg",1,1,0,0,1,3000,5983,1.5,2.5,2.5,2,0.68
1,10,1,0,99,1,"00111pt.jpg",2,2,0,1,1,3000,6454,1.5,2.5,2.5,2,0.52
1,10,1,0,100,1,"11111pt.jpg",4,4,1,1,1,3000,4425,1.5,2.5,2.5,2,0.68
1,10,1,0,101,1,"01010pt.jpg",2,1,0,1,0,3000,6591,1.5,2.5,2.5,2,0.68
1,10,1,0,102,1,"00101pt.jpg",1,4,0,0,0,3000,5293,1.5,2.5,2.5,2,0.6
1,10,1,0,103,1,"11110pt.jpg",4,1,1,1,0,3000,3166,1.5,2.5,2.5,2,0.68
1,10,1,0,104,1,"11011pt.jpg",2,2,0,1,1,3000,1831,1.5,2.5,2.5,2,0.76
1,11,1,1,1,0,"00111.jpg",2,4,0,1,0,-100,4538,2,1.5,4,1,0.28
1,11,1,1,2,0,"10001.jpg",1,3,0,0,0,-200,4084,2,1.5,4,1,0.24
1,11,1,1,3,0,"00101.jpg",1,2,0,0,0,-300,5369,2,1.5,4,1,0.68
1,11,1,1,4,0,"10010.jpg",2,2,0,1,1,-200,10667,2,1.5,4,1,0.48
1,11,1,1,5,0,"00110.jpg",2,4,0,1,0,-300,9239,2,1.5,4,1,0.32
1,11,1,1,6,0,"01110.jpg",2,2,0,1,1,-200,4935,2,1.5,4,1,0.56
1,11,1,1,7,0,"11000.jpg",1,1,0,0,1,-100,6610,2,1.5,4,1,0.64
1,11,1,1,8,0,"11100.jpg",3,3,1,0,1,0,9771,2,1.5,4,1,0.68
1,11,1,1,9,0,"00001.jpg",1,1,0,0,1,100,8838,2,1.5,4,1,0.64
1,11,1,1,10,0,"11111.jpg",4,2,1,1,0,0,3085,2,1.5,4,1,0.56
1,11,1,1,11,0,"01000.jpg",1,1,0,0,1,100,3666,2,1.5,4,1,0.72
1,11,1,1,12,0,"11000.jpg",1,1,0,0,1,200,9336,2,1.5,4,1,0.72
1,11,1,1,13,0,"01001.jpg",1,3,0,0,0,100,7132,2,1.5,4,1,0.8
1,11,1,1,14,0,"00010.jpg",2,2,0,1,1,200,3103,2,1.5,4,1,0.6
1,11,1,1,15,0,"11000.jpg",1,1,0,0,1,300,2100,2,1.5,4,1,0.64
1,11,1,1,16,0,"11001.jpg",1,1,0,0,1,400,2434,2,1.5,4,1,0.68
1,11,1,1,17,0,"01100.jpg",1,3,0,0,0,300,15641,2,1.5,4,1,0.76
1,11,1,1,18,0,"00010.jpg",2,2,0,1,1,400,3176,2,1.5,4,1,0.6
1,11,1,1,19,0,"11010.jpg",2,2,0,1,1,500,4715,2,1.5,4,1,0.72
1,11,1,1,20,0,"10001.jpg",1,4,0,0,0,400,5390,2,1.5,4,1,0.56
1,11,1,1,21,0,"10000.jpg",1,1,0,0,1,500,4701,2,1.5,4,1,0.56
1,11,1,1,22,0,"11010.jpg",2,2,0,1,1,600,3260,2,1.5,4,1,0.68
1,11,1,1,23,0,"01110.jpg",2,4,0,1,0,500,5467,2,1.5,4,1,0.76
1,11,1,1,24,0,"01001.jpg",1,1,0,0,1,600,3552,2,1.5,4,1,0.6
1,11,1,1,25,0,"10001.jpg",1,1,0,0,1,700,2028,2,1.5,4,1,0.72
1,11,1,1,26,0,"10101.jpg",3,1,1,0,0,600,8259,2,1.5,4,1,0.64
1,11,1,1,27,0,"01011.jpg",2,2,0,1,1,700,1474,2,1.5,4,1,0.72
1,11,1,1,28,0,"10110.jpg",4,2,1,1,0,600,1479,2,1.5,4,1,0.6
1,11,1,1,29,0,"00111.jpg",2,4,0,1,0,500,2388,2,1.5,4,1,0.8
1,11,1,1,30,0,"01100.jpg",1,1,0,0,1,600,2381,2,1.5,4,1,0.72
1,11,1,1,31,0,"10000.jpg",1,3,0,0,0,500,10583,2,1.5,4,1,0.64
1,11,1,1,32,0,"11100.jpg",3,1,1,0,0,400,1176,2,1.5,4,1,0.64
1,11,1,2,33,0,"00000.jpg",1,1,0,0,1,500,2305,2,1.5,4,1,0.68
1,11,1,2,34,0,"01111.jpg",2,2,0,1,1,600,5109,2,1.5,4,1,0.76
1,11,1,2,35,0,"01001.jpg",1,1,0,0,1,700,1540,2,1.5,4,1,0.8
1,11,1,2,36,0,"01111.jpg",2,2,0,1,1,800,1846,2,1.5,4,1,0.84
1,11,1,2,37,0,"10110.jpg",4,4,1,1,1,900,4620,2,1.5,4,1,0.8
1,11,1,2,38,0,"01011.jpg",2,2,0,1,1,1000,2253,2,1.5,4,1,0.76
1,11,1,2,39,0,"00110.jpg",2,4,0,1,0,900,2163,2,1.5,4,1,0.72
1,11,1,2,40,0,"01111.jpg",2,2,0,1,1,1000,2268,2,1.5,4,1,0.92
1,11,1,2,41,0,"01010.jpg",2,2,0,1,1,1100,1780,2,1.5,4,1,0.84
1,11,1,2,42,0,"00001.jpg",1,1,0,0,1,1200,8132,2,1.5,4,1,0.84
1,11,1,2,43,0,"11101.jpg",3,3,1,0,1,1300,10121,2,1.5,4,1,0.76
1,11,1,2,44,0,"11001.jpg",1,1,0,0,1,1400,2069,2,1.5,4,1,0.84
1,11,1,2,45,0,"00101.jpg",1,3,0,0,0,1300,16036,2,1.5,4,1,0.72
1,11,1,2,46,0,"00111.jpg",2,4,0,1,0,1200,3235,2,1.5,4,1,0.88
1,11,1,2,47,0,"11011.jpg",2,2,0,1,1,1300,1954,2,1.5,4,1,0.8
1,11,1,2,48,0,"01101.jpg",1,1,0,0,1,1400,3309,2,1.5,4,1,0.88
1,11,1,2,49,0,"10000.jpg",1,1,0,0,1,1500,5121,2,1.5,4,1,0.92
1,11,1,2,50,0,"10011.jpg",2,2,0,1,1,1600,3310,2,1.5,4,1,0.88
1,11,1,2,51,0,"01000.jpg",1,1,0,0,1,1700,2266,2,1.5,4,1,0.8
1,11,1,2,52,0,"10011.jpg",2,2,0,1,1,1800,1897,2,1.5,4,1,0.76
1,11,1,2,53,0,"10010.jpg",2,2,0,1,1,1900,1790,2,1.5,4,1,0.84
1,11,1,2,54,0,"00000.jpg",1,1,0,0,1,2000,1335,2,1.5,4,1,0.88
1,11,1,2,55,0,"00000.jpg",1,1,0,0,1,2100,3051,2,1.5,4,1,0.88
1,11,1,2,56,0,"10100.jpg",3,3,1,0,1,2200,10194,2,1.5,4,1,0.8
1,11,1,2,57,0,"00011.jpg",2,2,0,1,1,2300,1796,2,1.5,4,1,0.8
1,11,1,2,58,0,"10011.jpg",2,2,0,1,1,2400,1348,2,1.5,4,1,0.8
1,11,1,2,59,0,"10110.jpg",4,4,1,1,1,2500,4720,2,1.5,4,1,0.88
1,11,1,2,60,0,"11111.jpg",4,2,1,1,0,2400,4441,2,1.5,4,1,0.68
1,11,1,2,61,0,"10100.jpg",3,3,1,0,1,2500,10895,2,1.5,4,1,0.92
1,11,1,2,62,0,"00001.jpg",1,1,0,0,1,2600,2668,2,1.5,4,1,0.76
1,11,1,2,63,0,"01011.jpg",2,2,0,1,1,2700,2148,2,1.5,4,1,0.96
1,11,1,2,64,0,"01000.jpg",1,1,0,0,1,2800,2205,2,1.5,4,1,0.88
1,11,1,3,65,0,"10111.jpg",4,4,1,1,1,2900,2998,2,1.5,4,1,0.92
1,11,1,3,66,0,"01101.jpg",1,1,0,0,1,3000,6078,2,1.5,4,1,0.88
1,11,1,3,67,0,"11100.jpg",3,3,1,0,1,3100,3988,2,1.5,4,1,0.88
1,11,1,3,68,0,"01101.jpg",1,1,0,0,1,3200,2214,2,1.5,4,1,0.84
1,11,1,3,69,0,"11111.jpg",4,4,1,1,1,3300,3286,2,1.5,4,1,0.84
1,11,1,3,70,0,"00100.jpg",1,1,0,0,1,3400,3170,2,1.5,4,1,0.88
1,11,1,3,71,0,"10111.jpg",4,4,1,1,1,3500,1820,2,1.5,4,1,0.84
1,11,1,3,72,0,"11110.jpg",4,4,1,1,1,3600,2473,2,1.5,4,1,0.84
1,11,1,3,73,0,"00100.jpg",1,1,0,0,1,3700,2575,2,1.5,4,1,0.88
1,11,1,3,74,0,"11011.jpg",2,2,0,1,1,3800,2833,2,1.5,4,1,0.92
1,11,1,3,75,0,"00011.jpg",2,2,0,1,1,3900,2137,2,1.5,4,1,0.96
1,11,1,3,76,0,"10111.jpg",4,4,1,1,1,4000,2555,2,1.5,4,1,0.88
1,11,1,3,77,0,"11101.jpg",3,3,1,0,1,4100,4749,2,1.5,4,1,0.88
1,11,1,3,78,0,"00011.jpg",2,2,0,1,1,4200,3832,2,1.5,4,1,0.88
1,11,1,3,79,0,"11001.jpg",1,1,0,0,1,4300,1873,2,1.5,4,1,0.88
1,11,1,3,80,0,"10010.jpg",2,2,0,1,1,4400,2134,2,1.5,4,1,0.96
1,11,1,3,81,0,"11110.jpg",4,4,1,1,1,4500,2473,2,1.5,4,1,0.76
1,11,1,3,82,0,"00010.jpg",2,2,0,1,1,4600,1606,2,1.5,4,1,0.96
1,11,1,3,83,0,"00101.jpg",1,1,0,0,1,4700,5654,2,1.5,4,1,0.96
1,11,1,3,84,0,"01100.jpg",1,1,0,0,1,4800,5533,2,1.5,4,1,0.88
1,11,1,3,85,0,"10101.jpg",3,3,1,0,1,4900,3337,2,1.5,4,1,0.84
1,11,1,3,86,0,"01110.jpg",2,2,0,1,1,5000,8246,2,1.5,4,1,0.96
1,11,1,3,87,0,"10100.jpg",3,3,1,0,1,5100,5084,2,1.5,4,1,0.92
1,11,1,3,88,0,"11010.jpg",2,2,0,1,1,5200,2778,2,1.5,4,1,1
1,11,1,3,89,0,"00110.jpg",2,2,0,1,1,5300,3220,2,1.5,4,1,0.88
1,11,1,3,90,0,"01010.jpg",2,2,0,1,1,5400,2644,2,1.5,4,1,0.92
1,11,1,3,91,0,"10101.jpg",3,3,1,0,1,5500,2354,2,1.5,4,1,0.84
1,11,1,3,92,0,"11110.jpg",4,4,1,1,1,5600,2895,2,1.5,4,1,0.92
1,11,1,3,93,0,"01010.jpg",2,2,0,1,1,5700,1915,2,1.5,4,1,0.84
1,11,1,3,94,0,"11011.jpg",2,2,0,1,1,5800,2135,2,1.5,4,1,0.92
1,11,1,3,95,0,"11101.jpg",3,3,1,0,1,5900,2402,2,1.5,4,1,0.92
1,11,1,3,96,0,"00100.jpg",1,1,0,0,1,6000,6483,2,1.5,4,1,0.92
1,11,1,0,97,1,"11111pt.jpg",4,3,1,1,0,6000,4674,2,1.5,4,1,0.52
1,11,1,0,98,1,"11110pt.jpg",4,4,1,1,1,6000,31733,2,1.5,4,1,0.68
1,11,1,0,99,1,"01010pt.jpg",2,1,0,1,0,6000,4670,2,1.5,4,1,0.52
1,11,1,0,100,1,"01000pt.jpg",1,2,0,0,0,6000,3504,2,1.5,4,1,0.68
1,11,1,0,101,1,"11011pt.jpg",2,2,0,1,1,6000,4683,2,1.5,4,1,0.68
1,11,1,0,102,1,"00101pt.jpg",1,3,0,0,0,6000,4685,2,1.5,4,1,0.6
1,11,1,0,103,1,"10101pt.jpg",3,3,1,0,1,6000,3296,2,1.5,4,1,0.68
1,11,1,0,104,1,"00111pt.jpg",2,4,0,1,0,6000,8186,2,1.5,4,1,0.76
1,12,1,1,1,0,"11010.jpg",2,3,0,1,0,-100,16682,3.5,1.5,1,1.5,0.28
1,12,1,1,2,0,"11000.jpg",1,4,0,0,0,-200,33414,3.5,1.5,1,1.5,0.24
1,12,1,1,3,0,"00011.jpg",2,2,0,1,1,-100,14942,3.5,1.5,1,1.5,0.68
1,12,1,1,4,0,"00111.jpg",2,4,0,1,0,-200,26401,3.5,1.5,1,1.5,0.48
1,12,1,1,5,0,"10110.jpg",4,4,1,1,1,-100,30995,3.5,1.5,1,1.5,0.32
1,12,1,1,6,0,"00111.jpg",2,2,0,1,1,0,15035,3.5,1.5,1,1.5,0.56
1,12,1,1,7,0,"10001.jpg",1,2,0,0,0,-100,16002,3.5,1.5,1,1.5,0.64
1,12,1,1,8,0,"01010.jpg",2,1,0,1,0,-200,55434,3.5,1.5,1,1.5,0.68
1,12,1,1,9,0,"10100.jpg",3,4,1,0,0,-300,31802,3.5,1.5,1,1.5,0.64
1,12,1,1,10,0,"01000.jpg",1,2,0,0,0,-400,30594,3.5,1.5,1,1.5,0.56
1,12,1,1,11,0,"01101.jpg",1,2,0,0,0,-500,14450,3.5,1.5,1,1.5,0.72
1,12,1,1,12,0,"11010.jpg",2,2,0,1,1,-400,9232,3.5,1.5,1,1.5,0.72
1,12,1,1,13,0,"00010.jpg",2,3,0,1,0,-500,12111,3.5,1.5,1,1.5,0.8
1,12,1,1,14,0,"01001.jpg",1,1,0,0,1,-400,21652,3.5,1.5,1,1.5,0.6
1,12,1,1,15,0,"01110.jpg",2,3,0,1,0,-500,6329,3.5,1.5,1,1.5,0.64
1,12,1,1,16,0,"01100.jpg",1,3,0,0,0,-600,21206,3.5,1.5,1,1.5,0.68
1,12,1,1,17,0,"00011.jpg",2,2,0,1,1,-500,4853,3.5,1.5,1,1.5,0.76
1,12,1,1,18,0,"00110.jpg",2,1,0,1,0,-600,38285,3.5,1.5,1,1.5,0.6
1,12,1,1,19,0,"11110.jpg",4,3,1,1,0,-700,6545,3.5,1.5,1,1.5,0.72
1,12,1,1,20,0,"01101.jpg",1,2,0,0,0,-800,11043,3.5,1.5,1,1.5,0.56
1,12,1,1,21,0,"00100.jpg",1,2,0,0,0,-900,56008,3.5,1.5,1,1.5,0.56
1,12,1,1,22,0,"00110.jpg",2,2,0,1,1,-800,20537,3.5,1.5,1,1.5,0.68
1,12,1,1,23,0,"10010.jpg",2,2,0,1,1,-700,6226,3.5,1.5,1,1.5,0.76
1,12,1,1,24,0,"11101.jpg",3,1,1,0,0,-800,51546,3.5,1.5,1,1.5,0.6
1,12,1,1,25,0,"01011.jpg",2,1,0,1,0,-900,5852,3.5,1.5,1,1.5,0.72
1,12,1,1,26,0,"11100.jpg",3,2,1,0,0,-1000,15588,3.5,1.5,1,1.5,0.64
1,12,1,1,27,0,"01010.jpg",2,1,0,1,0,-1100,79243,3.5,1.5,1,1.5,0.72
1,12,1,1,28,0,"01000.jpg",1,2,0,0,0,-1200,16451,3.5,1.5,1,1.5,0.6
1,12,1,1,29,0,"11001.jpg",1,3,0,0,0,-1300,14042,3.5,1.5,1,1.5,0.8
1,12,1,1,30,0,"10010.jpg",2,2,0,1,1,-1200,14552,3.5,1.5,1,1.5,0.72
1,12,1,1,31,0,"11001.jpg",1,1,0,0,1,-1100,18569,3.5,1.5,1,1.5,0.64
1,12,1,1,32,0,"10110.jpg",4,4,1,1,1,-1000,18963,3.5,1.5,1,1.5,0.64
1,12,1,2,33,0,"11111.jpg",4,3,1,1,0,-1100,40804,3.5,1.5,1,1.5,0.68
1,12,1,2,34,0,"00010.jpg",2,2,0,1,1,-1000,49259,3.5,1.5,1,1.5,0.76
1,12,1,2,35,0,"10010.jpg",2,2,0,1,1,-900,7682,3.5,1.5,1,1.5,0.8
1,12,1,2,36,0,"11010.jpg",2,2,0,1,1,-800,2255,3.5,1.5,1,1.5,0.84
1,12,1,2,37,0,"00000.jpg",1,2,0,0,0,-900,156436,3.5,1.5,1,1.5,0.8
1,12,1,2,38,0,"00000.jpg",1,1,0,0,1,-800,1675,3.5,1.5,1,1.5,0.76
1,12,1,2,39,0,"11111.jpg",4,4,1,1,1,-700,3177,3.5,1.5,1,1.5,0.72
1,12,1,2,40,0,"10101.jpg",3,3,1,0,1,-600,5849,3.5,1.5,1,1.5,0.92
1,12,1,2,41,0,"10111.jpg",4,4,1,1,1,-500,2234,3.5,1.5,1,1.5,0.84
1,12,1,2,42,0,"10000.jpg",1,2,0,0,0,-600,12759,3.5,1.5,1,1.5,0.84
1,12,1,2,43,0,"01111.jpg",2,3,0,1,0,-700,18617,3.5,1.5,1,1.5,0.76
1,12,1,2,44,0,"01010.jpg",2,1,0,1,0,-800,17377,3.5,1.5,1,1.5,0.84
1,12,1,2,45,0,"11110.jpg",4,4,1,1,1,-700,2139,3.5,1.5,1,1.5,0.72
1,12,1,2,46,0,"10001.jpg",1,2,0,0,0,-800,14789,3.5,1.5,1,1.5,0.88
1,12,1,2,47,0,"00011.jpg",2,1,0,1,0,-900,13813,3.5,1.5,1,1.5,0.8
1,12,1,2,48,0,"10000.jpg",1,1,0,0,1,-800,20390,3.5,1.5,1,1.5,0.88
1,12,1,2,49,0,"11100.jpg",3,3,1,0,1,-700,4774,3.5,1.5,1,1.5,0.92
1,12,1,2,50,0,"10011.jpg",2,2,0,1,1,-600,8345,3.5,1.5,1,1.5,0.88
1,12,1,2,51,0,"11111.jpg",4,4,1,1,1,-500,1692,3.5,1.5,1,1.5,0.8
1,12,1,2,52,0,"00010.jpg",2,1,0,1,0,-600,4040,3.5,1.5,1,1.5,0.76
1,12,1,2,53,0,"10001.jpg",1,2,0,0,0,-700,61878,3.5,1.5,1,1.5,0.84
1,12,1,2,54,0,"11011.jpg",2,2,0,1,1,-600,15268,3.5,1.5,1,1.5,0.88
1,12,1,2,55,0,"11001.jpg",1,1,0,0,1,-500,6291,3.5,1.5,1,1.5,0.88
1,12,1,2,56,0,"11100.jpg",3,3,1,0,1,-400,2743,3.5,1.5,1,1.5,0.8
1,12,1,2,57,0,"01111.jpg",2,3,0,1,0,-500,3796,3.5,1.5,1,1.5,0.8
1,12,1,2,58,0,"01101.jpg",1,3,0,0,0,-600,44483,3.5,1.5,1,1.5,0.8
1,12,1,2,59,0,"10111.jpg",4,4,1,1,1,-500,3200,3.5,1.5,1,1.5,0.88
1,12,1,2,60,0,"01110.jpg",2,3,0,1,0,-600,50673,3.5,1.5,1,1.5,0.68
1,12,1,2,61,0,"00100.jpg",1,1,0,0,1,-500,13695,3.5,1.5,1,1.5,0.92
1,12,1,2,62,0,"10111.jpg",4,4,1,1,1,-400,1523,3.5,1.5,1,1.5,0.76
1,12,1,2,63,0,"00100.jpg",1,1,0,0,1,-300,3894,3.5,1.5,1,1.5,0.96
1,12,1,2,64,0,"01001.jpg",1,1,0,0,1,-200,6467,3.5,1.5,1,1.5,0.88
1,12,1,3,65,0,"00110.jpg",2,2,0,1,1,-100,19226,3.5,1.5,1,1.5,0.92
1,12,1,3,66,0,"01100.jpg",1,1,0,0,1,0,6489,3.5,1.5,1,1.5,0.88
1,12,1,3,67,0,"10101.jpg",3,3,1,0,1,100,2687,3.5,1.5,1,1.5,0.88
1,12,1,3,68,0,"11101.jpg",3,3,1,0,1,200,1669,3.5,1.5,1,1.5,0.84
1,12,1,3,69,0,"10100.jpg",3,3,1,0,1,300,2411,3.5,1.5,1,1.5,0.84
1,12,1,3,70,0,"11011.jpg",2,2,0,1,1,400,25716,3.5,1.5,1,1.5,0.88
1,12,1,3,71,0,"10110.jpg",4,4,1,1,1,500,1520,3.5,1.5,1,1.5,0.84
1,12,1,3,72,0,"00001.jpg",1,1,0,0,1,600,3163,3.5,1.5,1,1.5,0.84
1,12,1,3,73,0,"01001.jpg",1,1,0,0,1,700,1285,3.5,1.5,1,1.5,0.88
1,12,1,3,74,0,"10011.jpg",2,2,0,1,1,800,6283,3.5,1.5,1,1.5,0.92
1,12,1,3,75,0,"01000.jpg",1,1,0,0,1,900,2096,3.5,1.5,1,1.5,0.96
1,12,1,3,76,0,"11000.jpg",1,1,0,0,1,1000,22925,3.5,1.5,1,1.5,0.88
1,12,1,3,77,0,"00001.jpg",1,1,0,0,1,1100,2377,3.5,1.5,1,1.5,0.88
1,12,1,3,78,0,"01111.jpg",2,2,0,1,1,1200,20860,3.5,1.5,1,1.5,0.88
1,12,1,3,79,0,"10101.jpg",3,3,1,0,1,1300,3737,3.5,1.5,1,1.5,0.88
1,12,1,3,80,0,"11101.jpg",3,3,1,0,1,1400,6750,3.5,1.5,1,1.5,0.96
1,12,1,3,81,0,"10100.jpg",3,3,1,0,1,1500,1609,3.5,1.5,1,1.5,0.76
1,12,1,3,82,0,"11000.jpg",1,1,0,0,1,1600,6242,3.5,1.5,1,1.5,0.96
1,12,1,3,83,0,"01100.jpg",1,1,0,0,1,1700,8609,3.5,1.5,1,1.5,0.96
1,12,1,3,84,0,"00001.jpg",1,1,0,0,1,1800,22579,3.5,1.5,1,1.5,0.88
1,12,1,3,85,0,"10011.jpg",2,2,0,1,1,1900,2804,3.5,1.5,1,1.5,0.84
1,12,1,3,86,0,"00000.jpg",1,1,0,0,1,2000,1684,3.5,1.5,1,1.5,0.96
1,12,1,3,87,0,"11011.jpg",2,2,0,1,1,2100,2842,3.5,1.5,1,1.5,0.92
1,12,1,3,88,0,"01011.jpg",2,2,0,1,1,2200,12433,3.5,1.5,1,1.5,1
1,12,1,3,89,0,"00111.jpg",2,2,0,1,1,2300,21232,3.5,1.5,1,1.5,0.88
1,12,1,3,90,0,"00101.jpg",1,1,0,0,1,2400,3680,3.5,1.5,1,1.5,0.92
1,12,1,3,91,0,"10000.jpg",1,1,0,0,1,2500,5838,3.5,1.5,1,1.5,0.84
1,12,1,3,92,0,"01011.jpg",2,2,0,1,1,2600,5069,3.5,1.5,1,1.5,0.92
1,12,1,3,93,0,"00101.jpg",1,1,0,0,1,2700,2300,3.5,1.5,1,1.5,0.84
1,12,1,3,94,0,"00101.jpg",1,1,0,0,1,2800,6503,3.5,1.5,1,1.5,0.92
1,12,1,3,95,0,"11110.jpg",4,4,1,1,1,2900,2757,3.5,1.5,1,1.5,0.92
1,12,1,3,96,0,"01110.jpg",2,2,0,1,1,3000,10462,3.5,1.5,1,1.5,0.92
1,12,1,0,97,1,"11111pt.jpg",4,4,1,1,1,3000,7522,3.5,1.5,1,1.5,0.52
1,12,1,0,98,1,"00101pt.jpg",1,1,0,0,1,3000,8442,3.5,1.5,1,1.5,0.68
1,12,1,0,99,1,"10101pt.jpg",3,3,1,0,1,3000,34343,3.5,1.5,1,1.5,0.52
1,12,1,0,100,1,"01010pt.jpg",2,2,0,1,1,3000,5255,3.5,1.5,1,1.5,0.68
1,12,1,0,101,1,"01000pt.jpg",1,1,0,0,1,3000,2627,3.5,1.5,1,1.5,0.68
1,12,1,0,102,1,"00111pt.jpg",2,2,0,1,1,3000,5936,3.5,1.5,1,1.5,0.6
1,12,1,0,103,1,"11011pt.jpg",2,3,0,1,0,3000,7067,3.5,1.5,1,1.5,0.68
1,12,1,0,104,1,"11110pt.jpg",4,4,1,1,1,3000,32493,3.5,1.5,1,1.5,0.76
1,14,1,1,1,0,"11001.jpg",1,4,0,0,0,-100,13644,3,4,2,2,0.28
1,14,1,1,2,0,"00001.jpg",1,1,0,0,1,0,21466,3,4,2,2,0.24
1,14,1,1,3,0,"11101.jpg",3,3,1,0,1,100,19079,3,4,2,2,0.68
1,14,1,1,4,0,"00110.jpg",2,2,0,1,1,200,51301,3,4,2,2,0.48
1,14,1,1,5,0,"11000.jpg",1,4,0,0,0,100,14386,3,4,2,2,0.32
1,14,1,1,6,0,"11110.jpg",4,4,1,1,1,200,12475,3,4,2,2,0.56
1,14,1,1,7,0,"00001.jpg",1,1,0,0,1,300,8262,3,4,2,2,0.64
1,14,1,1,8,0,"01111.jpg",2,2,0,1,1,400,9397,3,4,2,2,0.68
1,14,1,1,9,0,"00101.jpg",1,1,0,0,1,500,6676,3,4,2,2,0.64
1,14,1,1,10,0,"10011.jpg",2,4,0,1,0,400,7035,3,4,2,2,0.56
1,14,1,1,11,0,"11011.jpg",2,4,0,1,0,300,13290,3,4,2,2,0.72
1,14,1,1,12,0,"10110.jpg",4,4,1,1,1,400,64054,3,4,2,2,0.72
1,14,1,1,13,0,"11101.jpg",3,3,1,0,1,500,13355,3,4,2,2,0.8
1,14,1,1,14,0,"10010.jpg",2,4,0,1,0,400,10566,3,4,2,2,0.6
1,14,1,1,15,0,"11001.jpg",1,1,0,0,1,500,21376,3,4,2,2,0.64
1,14,1,1,16,0,"01111.jpg",2,2,0,1,1,600,11866,3,4,2,2,0.68
1,14,1,1,17,0,"10000.jpg",1,3,0,0,0,500,6311,3,4,2,2,0.76
1,14,1,1,18,0,"00001.jpg",1,1,0,0,1,600,6843,3,4,2,2,0.6
1,14,1,1,19,0,"01011.jpg",2,2,0,1,1,700,7995,3,4,2,2,0.72
1,14,1,1,20,0,"11100.jpg",3,3,1,0,1,800,6170,3,4,2,2,0.56
1,14,1,1,21,0,"00110.jpg",2,4,0,1,0,700,25173,3,4,2,2,0.56
1,14,1,1,22,0,"11011.jpg",2,2,0,1,1,800,9981,3,4,2,2,0.68
1,14,1,1,23,0,"01011.jpg",2,2,0,1,1,900,2918,3,4,2,2,0.76
1,14,1,1,24,0,"00100.jpg",1,3,0,0,0,800,5827,3,4,2,2,0.6
1,14,1,1,25,0,"01100.jpg",1,1,0,0,1,900,3897,3,4,2,2,0.72
1,14,1,1,26,0,"00111.jpg",2,2,0,1,1,1000,17455,3,4,2,2,0.64
1,14,1,1,27,0,"10110.jpg",4,4,1,1,1,1100,3453,3,4,2,2,0.72
1,14,1,1,28,0,"01111.jpg",2,2,0,1,1,1200,3826,3,4,2,2,0.6
1,14,1,1,29,0,"00011.jpg",2,2,0,1,1,1300,2544,3,4,2,2,0.8
1,14,1,1,30,0,"10100.jpg",3,3,1,0,1,1400,2475,3,4,2,2,0.72
1,14,1,1,31,0,"00110.jpg",2,4,0,1,0,1300,2770,3,4,2,2,0.64
1,14,1,1,32,0,"10010.jpg",2,4,0,1,0,1200,7516,3,4,2,2,0.64
1,14,1,2,33,0,"00000.jpg",1,1,0,0,1,1300,6726,3,4,2,2,0.68
1,14,1,2,34,0,"10000.jpg",1,3,0,0,0,1200,3532,3,4,2,2,0.76
1,14,1,2,35,0,"10011.jpg",2,2,0,1,1,1300,19341,3,4,2,2,0.8
1,14,1,2,36,0,"01110.jpg",2,4,0,1,0,1200,5295,3,4,2,2,0.84
1,14,1,2,37,0,"00111.jpg",2,2,0,1,1,1300,5403,3,4,2,2,0.8
1,14,1,2,38,0,"00011.jpg",2,2,0,1,1,1400,2900,3,4,2,2,0.76
1,14,1,2,39,0,"11110.jpg",4,4,1,1,1,1500,8585,3,4,2,2,0.72
1,14,1,2,40,0,"00000.jpg",1,1,0,0,1,1600,3432,3,4,2,2,0.92
1,14,1,2,41,0,"01000.jpg",1,1,0,0,1,1700,9807,3,4,2,2,0.84
1,14,1,2,42,0,"10001.jpg",1,1,0,0,1,1800,5361,3,4,2,2,0.84
1,14,1,2,43,0,"01100.jpg",1,1,0,0,1,1900,6338,3,4,2,2,0.76
1,14,1,2,44,0,"11110.jpg",4,4,1,1,1,2000,2349,3,4,2,2,0.84
1,14,1,2,45,0,"11010.jpg",2,2,0,1,1,2100,7910,3,4,2,2,0.72
1,14,1,2,46,0,"11011.jpg",2,2,0,1,1,2200,4371,3,4,2,2,0.88
1,14,1,2,47,0,"10001.jpg",1,1,0,0,1,2300,2876,3,4,2,2,0.8
1,14,1,2,48,0,"01110.jpg",2,2,0,1,1,2400,7035,3,4,2,2,0.88
1,14,1,2,49,0,"01010.jpg",2,2,0,1,1,2500,2330,3,4,2,2,0.92
1,14,1,2,50,0,"00010.jpg",2,2,0,1,1,2600,1580,3,4,2,2,0.88
1,14,1,2,51,0,"10101.jpg",3,3,1,0,1,2700,3542,3,4,2,2,0.8
1,14,1,2,52,0,"11000.jpg",1,1,0,0,1,2800,2320,3,4,2,2,0.76
1,14,1,2,53,0,"10001.jpg",1,1,0,0,1,2900,1412,3,4,2,2,0.84
1,14,1,2,54,0,"10000.jpg",1,1,0,0,1,3000,1429,3,4,2,2,0.88
1,14,1,2,55,0,"11111.jpg",4,4,1,1,1,3100,5347,3,4,2,2,0.88
1,14,1,2,56,0,"10100.jpg",3,3,1,0,1,3200,2557,3,4,2,2,0.8
1,14,1,2,57,0,"11111.jpg",4,4,1,1,1,3300,2040,3,4,2,2,0.8
1,14,1,2,58,0,"01000.jpg",1,1,0,0,1,3400,1717,3,4,2,2,0.8
1,14,1,2,59,0,"01001.jpg",1,1,0,0,1,3500,1658,3,4,2,2,0.88
1,14,1,2,60,0,"11100.jpg",3,3,1,0,1,3600,2937,3,4,2,2,0.68
1,14,1,2,61,0,"11010.jpg",2,2,0,1,1,3700,4019,3,4,2,2,0.92
1,14,1,2,62,0,"01101.jpg",1,1,0,0,1,3800,38858,3,4,2,2,0.76
1,14,1,2,63,0,"00101.jpg",1,1,0,0,1,3900,3513,3,4,2,2,0.96
1,14,1,2,64,0,"10100.jpg",3,3,1,0,1,4000,2661,3,4,2,2,0.88
1,14,1,3,65,0,"10111.jpg",4,4,1,1,1,4100,1764,3,4,2,2,0.92
1,14,1,3,66,0,"11100.jpg",3,3,1,0,1,4200,1701,3,4,2,2,0.88
1,14,1,3,67,0,"11001.jpg",1,1,0,0,1,4300,9329,3,4,2,2,0.88
1,14,1,3,68,0,"01010.jpg",2,2,0,1,1,4400,2477,3,4,2,2,0.84
1,14,1,3,69,0,"10111.jpg",4,4,1,1,1,4500,1674,3,4,2,2,0.84
1,14,1,3,70,0,"01101.jpg",1,3,0,0,0,4400,1775,3,4,2,2,0.88
1,14,1,3,71,0,"10111.jpg",4,4,1,1,1,4500,3735,3,4,2,2,0.84
1,14,1,3,72,0,"01100.jpg",1,1,0,0,1,4600,5121,3,4,2,2,0.84
1,14,1,3,73,0,"11000.jpg",1,1,0,0,1,4700,3478,3,4,2,2,0.88
1,14,1,3,74,0,"00010.jpg",2,2,0,1,1,4800,1891,3,4,2,2,0.92
1,14,1,3,75,0,"01001.jpg",1,1,0,0,1,4900,2464,3,4,2,2,0.96
1,14,1,3,76,0,"01000.jpg",1,1,0,0,1,5000,1198,3,4,2,2,0.88
1,14,1,3,77,0,"01110.jpg",2,2,0,1,1,5100,6382,3,4,2,2,0.88
1,14,1,3,78,0,"00100.jpg",1,1,0,0,1,5200,3814,3,4,2,2,0.88
1,14,1,3,79,0,"01101.jpg",1,1,0,0,1,5300,1526,3,4,2,2,0.88
1,14,1,3,80,0,"00100.jpg",1,1,0,0,1,5400,1859,3,4,2,2,0.96
1,14,1,3,81,0,"00010.jpg",2,2,0,1,1,5500,1713,3,4,2,2,0.76
1,14,1,3,82,0,"00011.jpg",2,2,0,1,1,5600,1125,3,4,2,2,0.96
1,14,1,3,83,0,"10011.jpg",2,2,0,1,1,5700,4169,3,4,2,2,0.96
1,14,1,3,84,0,"10110.jpg",4,4,1,1,1,5800,2002,3,4,2,2,0.88
1,14,1,3,85,0,"10101.jpg",3,3,1,0,1,5900,3001,3,4,2,2,0.84
1,14,1,3,86,0,"10010.jpg",2,2,0,1,1,6000,1690,3,4,2,2,0.96
1,14,1,3,87,0,"11010.jpg",2,2,0,1,1,6100,2151,3,4,2,2,0.92
1,14,1,3,88,0,"11111.jpg",4,4,1,1,1,6200,1610,3,4,2,2,1
1,14,1,3,89,0,"01010.jpg",2,2,0,1,1,6300,2336,3,4,2,2,0.88
1,14,1,3,90,0,"00111.jpg",2,2,0,1,1,6400,3011,3,4,2,2,0.92
1,14,1,3,91,0,"00101.jpg",1,1,0,0,1,6500,2829,3,4,2,2,0.84
1,14,1,3,92,0,"01011.jpg",2,2,0,1,1,6600,1834,3,4,2,2,0.92
1,14,1,3,93,0,"10101.jpg",3,3,1,0,1,6700,3082,3,4,2,2,0.84
1,14,1,3,94,0,"01001.jpg",1,1,0,0,1,6800,2280,3,4,2,2,0.92
1,14,1,3,95,0,"00000.jpg",1,1,0,0,1,6900,1693,3,4,2,2,0.92
1,14,1,3,96,0,"11101.jpg",3,3,1,0,1,7000,1779,3,4,2,2,0.92
1,14,1,0,97,1,"11111pt.jpg",4,3,1,1,0,7000,10702,3,4,2,2,0.52
1,14,1,0,98,1,"10101pt.jpg",3,3,1,0,1,7000,5439,3,4,2,2,0.68
1,14,1,0,99,1,"00101pt.jpg",1,1,0,0,1,7000,11300,3,4,2,2,0.52
1,14,1,0,100,1,"11011pt.jpg",2,2,0,1,1,7000,26807,3,4,2,2,0.68
1,14,1,0,101,1,"00111pt.jpg",2,2,0,1,1,7000,8555,3,4,2,2,0.68
1,14,1,0,102,1,"01000pt.jpg",1,1,0,0,1,7000,3588,3,4,2,2,0.6
1,14,1,0,103,1,"11110pt.jpg",4,4,1,1,1,7000,3850,3,4,2,2,0.68
1,14,1,0,104,1,"01010pt.jpg",2,2,0,1,1,7000,4039,3,4,2,2,0.76
1,15,1,1,1,0,"11011.jpg",2,4,0,1,0,-100,37491,1.5,2,3,1.5,0.28
1,15,1,1,2,0,"01010.jpg",2,4,0,1,0,-200,51471,1.5,2,3,1.5,0.24
1,15,1,1,3,0,"11001.jpg",1,3,0,0,0,-300,101604,1.5,2,3,1.5,0.68
1,15,1,1,4,0,"11001.jpg",1,1,0,0,1,-200,7723,1.5,2,3,1.5,0.48
1,15,1,1,5,0,"00101.jpg",1,3,0,0,0,-300,35726,1.5,2,3,1.5,0.32
1,15,1,1,6,0,"00110.jpg",2,2,0,1,1,-200,7697,1.5,2,3,1.5,0.56
1,15,1,1,7,0,"10111.jpg",4,2,1,1,0,-300,2117,1.5,2,3,1.5,0.64
1,15,1,1,8,0,"10001.jpg",1,1,0,0,1,-200,8023,1.5,2,3,1.5,0.68
1,15,1,1,9,0,"01010.jpg",2,2,0,1,1,-100,12855,1.5,2,3,1.5,0.64
1,15,1,1,10,0,"01011.jpg",2,2,0,1,1,0,4646,1.5,2,3,1.5,0.56
1,15,1,1,11,0,"11100.jpg",3,3,1,0,1,100,5884,1.5,2,3,1.5,0.72
1,15,1,1,12,0,"11111.jpg",4,4,1,1,1,200,7106,1.5,2,3,1.5,0.72
1,15,1,1,13,0,"01011.jpg",2,2,0,1,1,300,4572,1.5,2,3,1.5,0.8
1,15,1,1,14,0,"01000.jpg",1,1,0,0,1,400,8783,1.5,2,3,1.5,0.6
1,15,1,1,15,0,"01100.jpg",1,3,0,0,0,300,4863,1.5,2,3,1.5,0.64
1,15,1,1,16,0,"00110.jpg",2,4,0,1,0,200,10492,1.5,2,3,1.5,0.68
1,15,1,1,17,0,"00110.jpg",2,2,0,1,1,300,11561,1.5,2,3,1.5,0.76
1,15,1,1,18,0,"11110.jpg",4,4,1,1,1,400,7307,1.5,2,3,1.5,0.6
1,15,1,1,19,0,"11111.jpg",4,4,1,1,1,500,6190,1.5,2,3,1.5,0.72
1,15,1,1,20,0,"00100.jpg",1,1,0,0,1,600,12526,1.5,2,3,1.5,0.56
1,15,1,1,21,0,"01110.jpg",2,4,0,1,0,500,4288,1.5,2,3,1.5,0.56
1,15,1,1,22,0,"01010.jpg",2,2,0,1,1,600,7989,1.5,2,3,1.5,0.68
1,15,1,1,23,0,"11010.jpg",2,2,0,1,1,700,13215,1.5,2,3,1.5,0.76
1,15,1,1,24,0,"10001.jpg",1,1,0,0,1,800,9110,1.5,2,3,1.5,0.6
1,15,1,1,25,0,"00111.jpg",2,1,0,1,0,700,41097,1.5,2,3,1.5,0.72
1,15,1,1,26,0,"11001.jpg",1,1,0,0,1,800,8933,1.5,2,3,1.5,0.64
1,15,1,1,27,0,"11100.jpg",3,3,1,0,1,900,7033,1.5,2,3,1.5,0.72
1,15,1,1,28,0,"11101.jpg",3,3,1,0,1,1000,5680,1.5,2,3,1.5,0.6
1,15,1,1,29,0,"11110.jpg",4,4,1,1,1,1100,6103,1.5,2,3,1.5,0.8
1,15,1,1,30,0,"11101.jpg",3,3,1,0,1,1200,3114,1.5,2,3,1.5,0.72
1,15,1,1,31,0,"00010.jpg",2,2,0,1,1,1300,9151,1.5,2,3,1.5,0.64
1,15,1,1,32,0,"01100.jpg",1,3,0,0,0,1200,5512,1.5,2,3,1.5,0.64
1,15,1,2,33,0,"11010.jpg",2,2,0,1,1,1300,5788,1.5,2,3,1.5,0.68
1,15,1,2,34,0,"11011.jpg",2,2,0,1,1,1400,3724,1.5,2,3,1.5,0.76
1,15,1,2,35,0,"10000.jpg",1,1,0,0,1,1500,20079,1.5,2,3,1.5,0.8
1,15,1,2,36,0,"00011.jpg",2,2,0,1,1,1600,13837,1.5,2,3,1.5,0.84
1,15,1,2,37,0,"00001.jpg",1,1,0,0,1,1700,24691,1.5,2,3,1.5,0.8
1,15,1,2,38,0,"11011.jpg",2,2,0,1,1,1800,5953,1.5,2,3,1.5,0.76
1,15,1,2,39,0,"01101.jpg",1,3,0,0,0,1700,37299,1.5,2,3,1.5,0.72
1,15,1,2,40,0,"00001.jpg",1,1,0,0,1,1800,11495,1.5,2,3,1.5,0.92
1,15,1,2,41,0,"00000.jpg",1,1,0,0,1,1900,4155,1.5,2,3,1.5,0.84
1,15,1,2,42,0,"01101.jpg",1,1,0,0,1,2000,15828,1.5,2,3,1.5,0.84
1,15,1,2,43,0,"10110.jpg",4,4,1,1,1,2100,34973,1.5,2,3,1.5,0.76
1,15,1,2,44,0,"00011.jpg",2,2,0,1,1,2200,9124,1.5,2,3,1.5,0.84
1,15,1,2,45,0,"11111.jpg",4,4,1,1,1,2300,10959,1.5,2,3,1.5,0.72
1,15,1,2,46,0,"00111.jpg",2,4,0,1,0,2200,12098,1.5,2,3,1.5,0.88
1,15,1,2,47,0,"01011.jpg",2,2,0,1,1,2300,5838,1.5,2,3,1.5,0.8
1,15,1,2,48,0,"00010.jpg",2,2,0,1,1,2400,7492,1.5,2,3,1.5,0.88
1,15,1,2,49,0,"10100.jpg",3,3,1,0,1,2500,17063,1.5,2,3,1.5,0.92
1,15,1,2,50,0,"10110.jpg",4,4,1,1,1,2600,5631,1.5,2,3,1.5,0.88
1,15,1,2,51,0,"11101.jpg",3,3,1,0,1,2700,13421,1.5,2,3,1.5,0.8
1,15,1,2,52,0,"10110.jpg",4,4,1,1,1,2800,17308,1.5,2,3,1.5,0.76
1,15,1,2,53,0,"11110.jpg",4,4,1,1,1,2900,18512,1.5,2,3,1.5,0.84
1,15,1,2,54,0,"01111.jpg",2,2,0,1,1,3000,8346,1.5,2,3,1.5,0.88
1,15,1,2,55,0,"01101.jpg",1,1,0,0,1,3100,12869,1.5,2,3,1.5,0.88
1,15,1,2,56,0,"01000.jpg",1,1,0,0,1,3200,12986,1.5,2,3,1.5,0.8
1,15,1,2,57,0,"01000.jpg",1,1,0,0,1,3300,4436,1.5,2,3,1.5,0.8
1,15,1,2,58,0,"01111.jpg",2,2,0,1,1,3400,10890,1.5,2,3,1.5,0.8
1,15,1,2,59,0,"10001.jpg",1,1,0,0,1,3500,17559,1.5,2,3,1.5,0.88
1,15,1,2,60,0,"10010.jpg",2,2,0,1,1,3600,6626,1.5,2,3,1.5,0.68
1,15,1,2,61,0,"10011.jpg",2,2,0,1,1,3700,3049,1.5,2,3,1.5,0.92
1,15,1,2,62,0,"00000.jpg",1,1,0,0,1,3800,6640,1.5,2,3,1.5,0.76
1,15,1,2,63,0,"10100.jpg",3,3,1,0,1,3900,3606,1.5,2,3,1.5,0.96
1,15,1,2,64,0,"10111.jpg",4,4,1,1,1,4000,5183,1.5,2,3,1.5,0.88
1,15,1,3,65,0,"10101.jpg",3,3,1,0,1,4100,7350,1.5,2,3,1.5,0.92
1,15,1,3,66,0,"01100.jpg",1,1,0,0,1,4200,6473,1.5,2,3,1.5,0.88
1,15,1,3,67,0,"00001.jpg",1,1,0,0,1,4300,3296,1.5,2,3,1.5,0.88
1,15,1,3,68,0,"01001.jpg",1,1,0,0,1,4400,2996,1.5,2,3,1.5,0.84
1,15,1,3,69,0,"10011.jpg",2,2,0,1,1,4500,3581,1.5,2,3,1.5,0.84
1,15,1,3,70,0,"00011.jpg",2,2,0,1,1,4600,2655,1.5,2,3,1.5,0.88
1,15,1,3,71,0,"10100.jpg",3,3,1,0,1,4700,4100,1.5,2,3,1.5,0.84
1,15,1,3,72,0,"11100.jpg",3,3,1,0,1,4800,2842,1.5,2,3,1.5,0.84
1,15,1,3,73,0,"01110.jpg",2,2,0,1,1,4900,4098,1.5,2,3,1.5,0.88
1,15,1,3,74,0,"00100.jpg",1,1,0,0,1,5000,4174,1.5,2,3,1.5,0.92
1,15,1,3,75,0,"10101.jpg",3,3,1,0,1,5100,6080,1.5,2,3,1.5,0.96
1,15,1,3,76,0,"10000.jpg",1,1,0,0,1,5200,4246,1.5,2,3,1.5,0.88
1,15,1,3,77,0,"00101.jpg",1,1,0,0,1,5300,2219,1.5,2,3,1.5,0.88
1,15,1,3,78,0,"00101.jpg",1,1,0,0,1,5400,2011,1.5,2,3,1.5,0.88
1,15,1,3,79,0,"10010.jpg",2,2,0,1,1,5500,3523,1.5,2,3,1.5,0.88
1,15,1,3,80,0,"01001.jpg",1,1,0,0,1,5600,3879,1.5,2,3,1.5,0.96
1,15,1,3,81,0,"00010.jpg",2,2,0,1,1,5700,3172,1.5,2,3,1.5,0.76
1,15,1,3,82,0,"11000.jpg",1,1,0,0,1,5800,4837,1.5,2,3,1.5,0.96
1,15,1,3,83,0,"11000.jpg",1,1,0,0,1,5900,6156,1.5,2,3,1.5,0.96
1,15,1,3,84,0,"10011.jpg",2,2,0,1,1,6000,2950,1.5,2,3,1.5,0.88
1,15,1,3,85,0,"00111.jpg",2,2,0,1,1,6100,4618,1.5,2,3,1.5,0.84
1,15,1,3,86,0,"00000.jpg",1,1,0,0,1,6200,4225,1.5,2,3,1.5,0.96
1,15,1,3,87,0,"00100.jpg",1,1,0,0,1,6300,1625,1.5,2,3,1.5,0.92
1,15,1,3,88,0,"01001.jpg",1,1,0,0,1,6400,1593,1.5,2,3,1.5,1
1,15,1,3,89,0,"01111.jpg",2,2,0,1,1,6500,3306,1.5,2,3,1.5,0.88
1,15,1,3,90,0,"11010.jpg",2,2,0,1,1,6600,2614,1.5,2,3,1.5,0.92
1,15,1,3,91,0,"10111.jpg",4,4,1,1,1,6700,6701,1.5,2,3,1.5,0.84
1,15,1,3,92,0,"10010.jpg",2,2,0,1,1,6800,3193,1.5,2,3,1.5,0.92
1,15,1,3,93,0,"10000.jpg",1,1,0,0,1,6900,2273,1.5,2,3,1.5,0.84
1,15,1,3,94,0,"11000.jpg",1,1,0,0,1,7000,3728,1.5,2,3,1.5,0.92
1,15,1,3,95,0,"10101.jpg",3,3,1,0,1,7100,4700,1.5,2,3,1.5,0.92
1,15,1,3,96,0,"01110.jpg",2,2,0,1,1,7200,3513,1.5,2,3,1.5,0.92
1,15,1,0,97,1,"11110pt.jpg",4,3,1,1,0,7200,13992,1.5,2,3,1.5,0.52
1,15,1,0,98,1,"11111pt.jpg",4,4,1,1,1,7200,23038,1.5,2,3,1.5,0.68
1,15,1,0,99,1,"01010pt.jpg",2,2,0,1,1,7200,17851,1.5,2,3,1.5,0.52
1,15,1,0,100,1,"00111pt.jpg",2,2,0,1,1,7200,33511,1.5,2,3,1.5,0.68
1,15,1,0,101,1,"01000pt.jpg",1,1,0,0,1,7200,7457,1.5,2,3,1.5,0.68
1,15,1,0,102,1,"10101pt.jpg",3,3,1,0,1,7200,7596,1.5,2,3,1.5,0.6
1,15,1,0,103,1,"00101pt.jpg",1,1,0,0,1,7200,11321,1.5,2,3,1.5,0.68
1,15,1,0,104,1,"11011pt.jpg",2,2,0,1,1,7200,13948,1.5,2,3,1.5,0.76
1,16,1,1,1,0,"11000.jpg",1,4,0,0,0,-100,48422,1.5,2,2.5,1,0.28
1,16,1,1,2,0,"00000.jpg",1,1,0,0,1,0,21724,1.5,2,2.5,1,0.24
1,16,1,1,3,0,"10000.jpg",1,1,0,0,1,100,18416,1.5,2,2.5,1,0.68
1,16,1,1,4,0,"11100.jpg",3,2,1,0,0,0,17088,1.5,2,2.5,1,0.48
1,16,1,1,5,0,"00011.jpg",2,2,0,1,1,100,29772,1.5,2,2.5,1,0.32
1,16,1,1,6,0,"01100.jpg",1,3,0,0,0,0,27094,1.5,2,2.5,1,0.56
1,16,1,1,7,0,"00000.jpg",1,1,0,0,1,100,23122,1.5,2,2.5,1,0.64
1,16,1,1,8,0,"00011.jpg",2,2,0,1,1,200,7165,1.5,2,2.5,1,0.68
1,16,1,1,9,0,"11011.jpg",2,4,0,1,0,100,8910,1.5,2,2.5,1,0.64
1,16,1,1,10,0,"11000.jpg",1,1,0,0,1,200,18027,1.5,2,2.5,1,0.56
1,16,1,1,11,0,"00111.jpg",2,2,0,1,1,300,24577,1.5,2,2.5,1,0.72
1,16,1,1,12,0,"10011.jpg",2,2,0,1,1,400,7076,1.5,2,2.5,1,0.72
1,16,1,1,13,0,"10100.jpg",3,3,1,0,1,500,16297,1.5,2,2.5,1,0.8
1,16,1,1,14,0,"00001.jpg",1,1,0,0,1,600,17670,1.5,2,2.5,1,0.6
1,16,1,1,15,0,"11000.jpg",1,1,0,0,1,700,3195,1.5,2,2.5,1,0.64
1,16,1,1,16,0,"01001.jpg",1,1,0,0,1,800,12124,1.5,2,2.5,1,0.68
1,16,1,1,17,0,"01000.jpg",1,1,0,0,1,900,5488,1.5,2,2.5,1,0.76
1,16,1,1,18,0,"00010.jpg",2,3,0,1,0,800,32053,1.5,2,2.5,1,0.6
1,16,1,1,19,0,"00101.jpg",1,4,0,0,0,700,25850,1.5,2,2.5,1,0.72
1,16,1,1,20,0,"10010.jpg",2,3,0,1,0,600,11784,1.5,2,2.5,1,0.56
1,16,1,1,21,0,"01011.jpg",2,2,0,1,1,700,25402,1.5,2,2.5,1,0.56
1,16,1,1,22,0,"10000.jpg",1,1,0,0,1,800,4720,1.5,2,2.5,1,0.68
1,16,1,1,23,0,"11001.jpg",1,2,0,0,0,700,8253,1.5,2,2.5,1,0.76
1,16,1,1,24,0,"01100.jpg",1,2,0,0,0,600,30138,1.5,2,2.5,1,0.6
1,16,1,1,25,0,"01011.jpg",2,2,0,1,1,700,14733,1.5,2,2.5,1,0.72
1,16,1,1,26,0,"01010.jpg",2,1,0,1,0,600,37368,1.5,2,2.5,1,0.64
1,16,1,1,27,0,"11010.jpg",2,4,0,1,0,500,25659,1.5,2,2.5,1,0.72
1,16,1,1,28,0,"11100.jpg",3,2,1,0,0,400,45752,1.5,2,2.5,1,0.6
1,16,1,1,29,0,"11111.jpg",4,4,1,1,1,500,34145,1.5,2,2.5,1,0.8
1,16,1,1,30,0,"10011.jpg",2,2,0,1,1,600,4347,1.5,2,2.5,1,0.72
1,16,1,1,31,0,"11010.jpg",2,2,0,1,1,700,3701,1.5,2,2.5,1,0.64
1,16,1,1,32,0,"00110.jpg",2,4,0,1,0,600,35658,1.5,2,2.5,1,0.64
1,16,1,2,33,0,"11001.jpg",1,2,0,0,0,500,26936,1.5,2,2.5,1,0.68
1,16,1,2,34,0,"00010.jpg",2,2,0,1,1,600,3129,1.5,2,2.5,1,0.76
1,16,1,2,35,0,"10010.jpg",2,2,0,1,1,700,2389,1.5,2,2.5,1,0.8
1,16,1,2,36,0,"00001.jpg",1,1,0,0,1,800,7141,1.5,2,2.5,1,0.84
1,16,1,2,37,0,"01110.jpg",2,2,0,1,1,900,10561,1.5,2,2.5,1,0.8
1,16,1,2,38,0,"10110.jpg",4,4,1,1,1,1000,10156,1.5,2,2.5,1,0.76
1,16,1,2,39,0,"10111.jpg",4,4,1,1,1,1100,2852,1.5,2,2.5,1,0.72
1,16,1,2,40,0,"00000.jpg",1,1,0,0,1,1200,6066,1.5,2,2.5,1,0.92
1,16,1,2,41,0,"11111.jpg",4,4,1,1,1,1300,3039,1.5,2,2.5,1,0.84
1,16,1,2,42,0,"01101.jpg",1,2,0,0,0,1200,32725,1.5,2,2.5,1,0.84
1,16,1,2,43,0,"11111.jpg",4,4,1,1,1,1300,6832,1.5,2,2.5,1,0.76
1,16,1,2,44,0,"10010.jpg",2,2,0,1,1,1400,4726,1.5,2,2.5,1,0.84
1,16,1,2,45,0,"01101.jpg",1,1,0,0,1,1500,4745,1.5,2,2.5,1,0.72
1,16,1,2,46,0,"11101.jpg",3,3,1,0,1,1600,19444,1.5,2,2.5,1,0.88
1,16,1,2,47,0,"01111.jpg",2,2,0,1,1,1700,15114,1.5,2,2.5,1,0.8
1,16,1,2,48,0,"10001.jpg",1,1,0,0,1,1800,21254,1.5,2,2.5,1,0.88
1,16,1,2,49,0,"00101.jpg",1,1,0,0,1,1900,2790,1.5,2,2.5,1,0.92
1,16,1,2,50,0,"01010.jpg",2,2,0,1,1,2000,2629,1.5,2,2.5,1,0.88
1,16,1,2,51,0,"00111.jpg",2,2,0,1,1,2100,5637,1.5,2,2.5,1,0.8
1,16,1,2,52,0,"11110.jpg",4,4,1,1,1,2200,3139,1.5,2,2.5,1,0.76
1,16,1,2,53,0,"11101.jpg",3,1,1,0,0,2100,7325,1.5,2,2.5,1,0.84
1,16,1,2,54,0,"10001.jpg",1,1,0,0,1,2200,25953,1.5,2,2.5,1,0.88
1,16,1,2,55,0,"10110.jpg",4,4,1,1,1,2300,5484,1.5,2,2.5,1,0.88
1,16,1,2,56,0,"11011.jpg",2,2,0,1,1,2400,4511,1.5,2,2.5,1,0.8
1,16,1,2,57,0,"10100.jpg",3,3,1,0,1,2500,7803,1.5,2,2.5,1,0.8
1,16,1,2,58,0,"01111.jpg",2,2,0,1,1,2600,9659,1.5,2,2.5,1,0.8
1,16,1,2,59,0,"00110.jpg",2,2,0,1,1,2700,32232,1.5,2,2.5,1,0.88
1,16,1,2,60,0,"00100.jpg",1,1,0,0,1,2800,5168,1.5,2,2.5,1,0.68
1,16,1,2,61,0,"10000.jpg",1,1,0,0,1,2900,10074,1.5,2,2.5,1,0.92
1,16,1,2,62,0,"00100.jpg",1,3,0,0,0,2800,4480,1.5,2,2.5,1,0.76
1,16,1,2,63,0,"01000.jpg",1,1,0,0,1,2900,11165,1.5,2,2.5,1,0.96
1,16,1,2,64,0,"10110.jpg",4,4,1,1,1,3000,5094,1.5,2,2.5,1,0.88
1,16,1,3,65,0,"10111.jpg",4,4,1,1,1,3100,2866,1.5,2,2.5,1,0.92
1,16,1,3,66,0,"11010.jpg",2,2,0,1,1,3200,9423,1.5,2,2.5,1,0.88
1,16,1,3,67,0,"10101.jpg",3,3,1,0,1,3300,11045,1.5,2,2.5,1,0.88
1,16,1,3,68,0,"01000.jpg",1,1,0,0,1,3400,2533,1.5,2,2.5,1,0.84
1,16,1,3,69,0,"00001.jpg",1,1,0,0,1,3500,1960,1.5,2,2.5,1,0.84
1,16,1,3,70,0,"01110.jpg",2,2,0,1,1,3600,3675,1.5,2,2.5,1,0.88
1,16,1,3,71,0,"01101.jpg",1,1,0,0,1,3700,12255,1.5,2,2.5,1,0.84
1,16,1,3,72,0,"00110.jpg",2,2,0,1,1,3800,5662,1.5,2,2.5,1,0.84
1,16,1,3,73,0,"10101.jpg",3,3,1,0,1,3900,4236,1.5,2,2.5,1,0.88
1,16,1,3,74,0,"01111.jpg",2,2,0,1,1,4000,2323,1.5,2,2.5,1,0.92
1,16,1,3,75,0,"11110.jpg",4,4,1,1,1,4100,3527,1.5,2,2.5,1,0.96
1,16,1,3,76,0,"10100.jpg",3,3,1,0,1,4200,6130,1.5,2,2.5,1,0.88
1,16,1,3,77,0,"11110.jpg",4,4,1,1,1,4300,2605,1.5,2,2.5,1,0.88
1,16,1,3,78,0,"10111.jpg",4,4,1,1,1,4400,2172,1.5,2,2.5,1,0.88
1,16,1,3,79,0,"01011.jpg",2,2,0,1,1,4500,4493,1.5,2,2.5,1,0.88
1,16,1,3,80,0,"01001.jpg",1,1,0,0,1,4600,2586,1.5,2,2.5,1,0.96
1,16,1,3,81,0,"11100.jpg",3,3,1,0,1,4700,3850,1.5,2,2.5,1,0.76
1,16,1,3,82,0,"10001.jpg",1,1,0,0,1,4800,4546,1.5,2,2.5,1,0.96
1,16,1,3,83,0,"00010.jpg",2,2,0,1,1,4900,2244,1.5,2,2.5,1,0.96
1,16,1,3,84,0,"11101.jpg",3,3,1,0,1,5000,3700,1.5,2,2.5,1,0.88
1,16,1,3,85,0,"01001.jpg",1,1,0,0,1,5100,2232,1.5,2,2.5,1,0.84
1,16,1,3,86,0,"11011.jpg",2,2,0,1,1,5200,2303,1.5,2,2.5,1,0.96
1,16,1,3,87,0,"00011.jpg",2,2,0,1,1,5300,2140,1.5,2,2.5,1,0.92
1,16,1,3,88,0,"10101.jpg",3,3,1,0,1,5400,2973,1.5,2,2.5,1,1
1,16,1,3,89,0,"11001.jpg",1,1,0,0,1,5500,2352,1.5,2,2.5,1,0.88
1,16,1,3,90,0,"00101.jpg",1,1,0,0,1,5600,2428,1.5,2,2.5,1,0.92
1,16,1,3,91,0,"01010.jpg",2,2,0,1,1,5700,2586,1.5,2,2.5,1,0.84
1,16,1,3,92,0,"01110.jpg",2,2,0,1,1,5800,2578,1.5,2,2.5,1,0.92
1,16,1,3,93,0,"00111.jpg",2,2,0,1,1,5900,1621,1.5,2,2.5,1,0.84
1,16,1,3,94,0,"10011.jpg",2,2,0,1,1,6000,7899,1.5,2,2.5,1,0.92
1,16,1,3,95,0,"00100.jpg",1,1,0,0,1,6100,3240,1.5,2,2.5,1,0.92
1,16,1,3,96,0,"01100.jpg",1,1,0,0,1,6200,2063,1.5,2,2.5,1,0.92
1,16,1,0,97,1,"01000pt.jpg",1,1,0,0,1,6200,17569,1.5,2,2.5,1,0.52
1,16,1,0,98,1,"00111pt.jpg",2,2,0,1,1,6200,40272,1.5,2,2.5,1,0.68
1,16,1,0,99,1,"01010pt.jpg",2,2,0,1,1,6200,6370,1.5,2,2.5,1,0.52
1,16,1,0,100,1,"10101pt.jpg",3,3,1,0,1,6200,34794,1.5,2,2.5,1,0.68
1,16,1,0,101,1,"11110pt.jpg",4,4,1,1,1,6200,4712,1.5,2,2.5,1,0.68
1,16,1,0,102,1,"11011pt.jpg",2,2,0,1,1,6200,4994,1.5,2,2.5,1,0.6
1,16,1,0,103,1,"11111pt.jpg",4,4,1,1,1,6200,6312,1.5,2,2.5,1,0.68
1,16,1,0,104,1,"00101pt.jpg",1,1,0,0,1,6200,25968,1.5,2,2.5,1,0.76
1,17,1,1,1,0,"00011.jpg",2,2,0,1,1,100,27796,3.5,5.5,1.5,1,0.28
1,17,1,1,2,0,"00110.jpg",2,4,0,1,0,0,14652,3.5,5.5,1.5,1,0.24
1,17,1,1,3,0,"11001.jpg",1,4,0,0,0,-100,19802,3.5,5.5,1.5,1,0.68
1,17,1,1,4,0,"00111.jpg",2,4,0,1,0,-200,23274,3.5,5.5,1.5,1,0.48
1,17,1,1,5,0,"10101.jpg",3,3,1,0,1,-100,27751,3.5,5.5,1.5,1,0.32
1,17,1,1,6,0,"11011.jpg",2,4,0,1,0,-200,9618,3.5,5.5,1.5,1,0.56
1,17,1,1,7,0,"10000.jpg",1,3,0,0,0,-300,27369,3.5,5.5,1.5,1,0.64
1,17,1,1,8,0,"10001.jpg",1,1,0,0,1,-200,23321,3.5,5.5,1.5,1,0.68
1,17,1,1,9,0,"00110.jpg",2,4,0,1,0,-300,6375,3.5,5.5,1.5,1,0.64
1,17,1,1,10,0,"00000.jpg",1,1,0,0,1,-200,3415,3.5,5.5,1.5,1,0.56
1,17,1,1,11,0,"01010.jpg",2,2,0,1,1,-100,4504,3.5,5.5,1.5,1,0.72
1,17,1,1,12,0,"10101.jpg",3,3,1,0,1,0,4083,3.5,5.5,1.5,1,0.72
1,17,1,1,13,0,"01100.jpg",1,3,0,0,0,-100,8297,3.5,5.5,1.5,1,0.8
1,17,1,1,14,0,"00001.jpg",1,1,0,0,1,0,11172,3.5,5.5,1.5,1,0.6
1,17,1,1,15,0,"00001.jpg",1,1,0,0,1,100,4463,3.5,5.5,1.5,1,0.64
1,17,1,1,16,0,"00111.jpg",2,2,0,1,1,200,9653,3.5,5.5,1.5,1,0.68
1,17,1,1,17,0,"11010.jpg",2,4,0,1,0,100,13355,3.5,5.5,1.5,1,0.76
1,17,1,1,18,0,"11000.jpg",1,1,0,0,1,200,22092,3.5,5.5,1.5,1,0.6
1,17,1,1,19,0,"11110.jpg",4,2,1,1,0,100,8115,3.5,5.5,1.5,1,0.72
1,17,1,1,20,0,"01111.jpg",2,2,0,1,1,200,5748,3.5,5.5,1.5,1,0.56
1,17,1,1,21,0,"01101.jpg",1,1,0,0,1,300,3976,3.5,5.5,1.5,1,0.56
1,17,1,1,22,0,"10001.jpg",1,1,0,0,1,400,11425,3.5,5.5,1.5,1,0.68
1,17,1,1,23,0,"00101.jpg",1,1,0,0,1,500,11231,3.5,5.5,1.5,1,0.76
1,17,1,1,24,0,"01110.jpg",2,2,0,1,1,600,5158,3.5,5.5,1.5,1,0.6
1,17,1,1,25,0,"00100.jpg",1,1,0,0,1,700,9097,3.5,5.5,1.5,1,0.72
1,17,1,1,26,0,"01111.jpg",2,2,0,1,1,800,4093,3.5,5.5,1.5,1,0.64
1,17,1,1,27,0,"00110.jpg",2,2,0,1,1,900,5465,3.5,5.5,1.5,1,0.72
1,17,1,1,28,0,"11110.jpg",4,2,1,1,0,800,22040,3.5,5.5,1.5,1,0.6
1,17,1,1,29,0,"00011.jpg",2,2,0,1,1,900,3932,3.5,5.5,1.5,1,0.8
1,17,1,1,30,0,"01000.jpg",1,1,0,0,1,1000,3959,3.5,5.5,1.5,1,0.72
1,17,1,1,31,0,"00101.jpg",1,1,0,0,1,1100,2218,3.5,5.5,1.5,1,0.64
1,17,1,1,32,0,"01100.jpg",1,1,0,0,1,1200,1931,3.5,5.5,1.5,1,0.64
1,17,1,2,33,0,"01111.jpg",2,2,0,1,1,1300,2774,3.5,5.5,1.5,1,0.68
1,17,1,2,34,0,"01100.jpg",1,1,0,0,1,1400,2007,3.5,5.5,1.5,1,0.76
1,17,1,2,35,0,"11110.jpg",4,4,1,1,1,1500,9536,3.5,5.5,1.5,1,0.8
1,17,1,2,36,0,"10110.jpg",4,4,1,1,1,1600,2770,3.5,5.5,1.5,1,0.84
1,17,1,2,37,0,"10111.jpg",4,4,1,1,1,1700,6434,3.5,5.5,1.5,1,0.8
1,17,1,2,38,0,"00000.jpg",1,1,0,0,1,1800,1824,3.5,5.5,1.5,1,0.76
1,17,1,2,39,0,"11111.jpg",4,4,1,1,1,1900,3176,3.5,5.5,1.5,1,0.72
